loggingTime,loggingSample,accelerometerTimestamp_sinceReboot,accelerometerAccelerationX,accelerometerAccelerationY,accelerometerAccelerationZ
2015-04-16 19:54:01.692,1,47189.227269,0.02081298828125,-0.994415283203125,0.0005340576171875
2015-04-16 19:54:01.748,2,47189.236996125,0.0231781005859375,-0.971466064453125,-0.0231781005859375
2015-04-16 19:54:01.750,3,47189.24671662501,0.0208740234375,-0.9305419921875,-0.032196044921875
2015-04-16 19:54:01.750,4,47189.25643004167,0.0207672119140625,-1.000762939453125,-0.080963134765625
2015-04-16 19:54:01.751,5,47189.26618100001,0.0158233642578125,-0.9984893798828125,0.052642822265625
2015-04-16 19:54:01.751,6,47189.275870625,-0.0084075927734375,-1.022613525390625,0.0677337646484375
2015-04-16 19:54:01.752,7,47189.28559091667,0.039093017578125,-0.9610748291015625,0.0433807373046875
2015-04-16 19:54:01.752,8,47189.29531025,0.0096282958984375,-0.9765625,0.02410888671875
2015-04-16 19:54:01.753,9,47189.30503216667,0.084991455078125,-0.96514892578125,0.001739501953125
2015-04-16 19:54:01.754,10,47189.31475216667,-0.07281494140625,-1.006912231445312,0.0005340576171875
2015-04-16 19:54:01.754,11,47189.3244725,0.0139923095703125,-0.9811553955078125,-0.00634765625
2015-04-16 19:54:01.774,12,47189.33419162501,0.0255126953125,-0.9877166748046875,0.001434326171875
2015-04-16 19:54:01.806,13,47189.3439155,0.0205230712890625,-0.957305908203125,-0.0006256103515625
2015-04-16 19:54:01.806,14,47189.35363208334,0.027374267578125,-0.9810333251953125,0.00238037109375
2015-04-16 19:54:01.807,15,47189.36335833334,0.0216217041015625,-0.980133056640625,-0.00152587890625
2015-04-16 19:54:01.807,16,47189.373093375,0.0293426513671875,-0.9971771240234375,-0.000518798828125
2015-04-16 19:54:01.808,17,47189.38279579167,0.0319976806640625,-0.977142333984375,-0.0035858154296875
2015-04-16 19:54:01.815,18,47189.39251325,0.03570556640625,-0.9723358154296875,-0.0066070556640625
2015-04-16 19:54:01.826,19,47189.40230150001,0.03009033203125,-0.9743194580078125,-0.002593994140625
2015-04-16 19:54:01.834,20,47189.41200766667,0.028411865234375,-0.996246337890625,0.0014495849609375
2015-04-16 19:54:01.844,21,47189.42167512501,0.0256195068359375,-0.991546630859375,0.00732421875
2015-04-16 19:54:01.855,22,47189.431396125,0.0293121337890625,-0.980072021484375,0.0072174072265625
2015-04-16 19:54:01.869,23,47189.44111158334,0.0283355712890625,-0.97344970703125,0.0091705322265625
2015-04-16 19:54:01.895,24,47189.45083408333,0.032196044921875,-0.98101806640625,0.0101776123046875
2015-04-16 19:54:01.896,25,47189.46055108334,0.0341339111328125,-0.9857330322265625,0.011138916015625
2015-04-16 19:54:01.897,26,47189.47027345833,0.0360260009765625,-0.991424560546875,0.0072174072265625
2015-04-16 19:54:01.903,27,47189.47999620833,0.0350341796875,-0.980987548828125,0.0101470947265625
2015-04-16 19:54:01.912,28,47189.48971208333,0.037750244140625,-0.9780731201171875,0.00225830078125
2015-04-16 19:54:01.921,29,47189.49946716667,0.034027099609375,-0.980010986328125,0.006195068359375
2015-04-16 19:54:01.931,30,47189.50915279167,0.0377349853515625,-0.98565673828125,-0.00262451171875
2015-04-16 19:54:01.941,31,47189.51887470834,0.0349578857421875,-0.9857025146484375,0.0013275146484375
2015-04-16 19:54:01.951,32,47189.52860829167,0.035797119140625,-0.979949951171875,-0.0036163330078125
2015-04-16 19:54:01.970,33,47189.538317125,0.035858154296875,-0.97808837890625,0.0022735595703125
2015-04-16 19:54:01.994,34,47189.54803345833,0.032989501953125,-0.98095703125,-0.001617431640625
2015-04-16 19:54:01.994,35,47189.55775658334,0.0349884033203125,-0.98760986328125,0.0023345947265625
2015-04-16 19:54:01.995,36,47189.56753383334,0.0396575927734375,-0.983734130859375,0.00030517578125
2015-04-16 19:54:01.999,37,47189.57719320834,0.0406341552734375,-0.981842041015625,0.0041961669921875
2015-04-16 19:54:02.010,38,47189.586921,0.0387420654296875,-0.9809112548828125,0.00421142578125
2015-04-16 19:54:02.020,39,47189.59663525,0.0368804931640625,-0.979034423828125,0.0071563720703125
2015-04-16 19:54:02.029,40,47189.60646291667,0.035980224609375,-0.9847564697265625,0.0071868896484375
2015-04-16 19:54:02.039,41,47189.61619625,0.0388336181640625,-0.9856719970703125,0.008148193359375
2015-04-16 19:54:02.049,42,47189.62579275,0.0378265380859375,-0.9818878173828125,0.0061798095703125
2015-04-16 19:54:02.071,43,47189.635513375,0.036895751953125,-0.9847412109375,0.0052337646484375
2015-04-16 19:54:02.100,44,47189.64523345834,0.0349578857421875,-0.981903076171875,0.0042572021484375
2015-04-16 19:54:02.100,45,47189.65495116667,0.039794921875,-0.9866180419921875,0.0081634521484375
2015-04-16 19:54:02.101,46,47189.66466933334,0.034027099609375,-0.9847564697265625,0.0023193359375
2015-04-16 19:54:02.101,47,47189.67438591667,0.0397491455078125,-0.98187255859375,0.0091094970703125
2015-04-16 19:54:02.107,48,47189.68417141667,0.037750244140625,-0.9799652099609375,0.0012664794921875
2015-04-16 19:54:02.118,49,47189.6957745,0.031158447265625,-0.9810028076171875,0.0023345947265625
2015-04-16 19:54:02.130,50,47189.70549991667,0.0320892333984375,-0.980987548828125,0.0013427734375
2015-04-16 19:54:02.139,51,47189.71524708334,0.0348663330078125,-0.9809417724609375,-0.0026092529296875
2015-04-16 19:54:02.148,52,47189.72498945834,0.0330047607421875,-0.9799957275390625,0.000335693359375
2015-04-16 19:54:02.173,53,47189.73475533334,0.034912109375,-0.977142333984375,0.0022735595703125
2015-04-16 19:54:02.201,54,47189.74436966667,0.0358428955078125,-0.9771270751953125,0.0012664794921875
2015-04-16 19:54:02.201,55,47189.7540945,0.0330810546875,-0.9800262451171875,0.0062103271484375
2015-04-16 19:54:02.202,56,47189.763811,0.037811279296875,-0.9856719970703125,0.003265380859375
2015-04-16 19:54:02.202,57,47189.77352879167,0.0397491455078125,-0.984710693359375,0.0061798095703125
2015-04-16 19:54:02.206,58,47189.78336416667,0.0415496826171875,-0.97991943359375,0.003204345703125
2015-04-16 19:54:02.215,59,47189.7929725,0.0405731201171875,-0.97613525390625,0.001220703125
2015-04-16 19:54:02.226,60,47189.80270737501,0.0378265380859375,-0.983795166015625,0.005218505859375
2015-04-16 19:54:02.237,61,47189.81436233334,0.0340728759765625,-0.9809722900390625,0.0081787109375
2015-04-16 19:54:02.247,62,47189.82407316667,0.03594970703125,-0.981903076171875,0.007171630859375
2015-04-16 19:54:02.271,63,47189.83584775,0.03216552734375,-0.9791107177734375,0.0091705322265625
2015-04-16 19:54:02.295,64,47189.84545341667,0.036895751953125,-0.9828338623046875,0.006195068359375
2015-04-16 19:54:02.296,65,47189.85517283333,0.0406494140625,-0.9818572998046875,0.0051727294921875
2015-04-16 19:54:02.297,66,47189.86489191667,0.0340423583984375,-0.98382568359375,0.0052490234375
2015-04-16 19:54:02.298,67,47189.87461141667,0.0386962890625,-0.9827880859375,-0.0006866455078125
2015-04-16 19:54:02.307,68,47189.88433995833,0.0291900634765625,-0.982879638671875,-0.0045318603515625
2015-04-16 19:54:02.317,69,47189.89405425001,0.0321044921875,-0.980987548828125,0.0023345947265625
2015-04-16 19:54:02.327,70,47189.903771875,0.033966064453125,-0.9828338623046875,-0.000640869140625
2015-04-16 19:54:02.337,71,47189.913539875,0.0311431884765625,-0.979095458984375,0.0032958984375
2015-04-16 19:54:02.346,72,47189.923220375,0.03399658203125,-0.9771575927734375,0.0052032470703125
2015-04-16 19:54:02.356,73,47189.93304525,0.029266357421875,-0.981964111328125,0.003326416015625
2015-04-16 19:54:02.394,74,47189.942654625,0.0322113037109375,-0.9876556396484375,0.0072479248046875
2015-04-16 19:54:02.395,75,47189.95237391667,0.032135009765625,-0.9857330322265625,0.002349853515625
2015-04-16 19:54:02.395,76,47189.96209358334,0.0369110107421875,-0.9818878173828125,0.0081634521484375
2015-04-16 19:54:02.396,77,47189.97183150001,0.032135009765625,-0.9819488525390625,0.0052642822265625
2015-04-16 19:54:02.405,78,47189.9815365,0.035980224609375,-0.9838104248046875,0.0081787109375
2015-04-16 19:54:02.414,79,47189.99127758334,0.035003662109375,-0.9857177734375,0.0052490234375
2015-04-16 19:54:02.424,80,47190.001089875,0.0321044921875,-0.982879638671875,0.0013427734375
2015-04-16 19:54:02.433,81,47190.01069891667,0.036865234375,-0.9809417724609375,0.005218505859375
2015-04-16 19:54:02.443,82,47190.02042004167,0.033935546875,-0.97808837890625,0.0003204345703125
2015-04-16 19:54:02.454,83,47190.030244375,0.0292510986328125,-0.98480224609375,-0.000579833984375
2015-04-16 19:54:02.495,84,47190.039855125,0.0350341796875,-0.984771728515625,0.0072021484375
2015-04-16 19:54:02.496,85,47190.04957325001,0.033935546875,-0.979034423828125,-0.0006561279296875
2015-04-16 19:54:02.497,86,47190.05929679167,0.0320892333984375,-0.980987548828125,0.0013427734375
2015-04-16 19:54:02.497,87,47190.06901541667,0.0321197509765625,-0.9762420654296875,0.0062103271484375
2015-04-16 19:54:02.501,88,47190.07873758334,0.0321044921875,-0.980987548828125,0.0033111572265625
2015-04-16 19:54:02.511,89,47190.08845658333,0.0340118408203125,-0.9847564697265625,0.0013275146484375
2015-04-16 19:54:02.522,90,47190.09831575,0.032989501953125,-0.9799957275390625,-0.000640869140625
2015-04-16 19:54:02.532,91,47190.10801379167,0.033050537109375,-0.97906494140625,0.0042572021484375
2015-04-16 19:54:02.541,92,47190.11773845834,0.031158447265625,-0.9810028076171875,0.0033111572265625
2015-04-16 19:54:02.550,93,47190.12734125,0.028350830078125,-0.9781951904296875,0.007232666015625
2015-04-16 19:54:02.583,94,47190.13705508334,0.030242919921875,-0.9828948974609375,0.004302978515625
2015-04-16 19:54:02.611,95,47190.14677533333,0.0293121337890625,-0.9829254150390625,0.005279541015625
2015-04-16 19:54:02.613,96,47190.1564965,0.0264129638671875,-0.9781951904296875,0.0043182373046875
2015-04-16 19:54:02.613,97,47190.16621037501,0.036895751953125,-0.9799957275390625,0.009124755859375
2015-04-16 19:54:02.614,98,47190.17593179167,0.02642822265625,-0.9791412353515625,0.0043182373046875
2015-04-16 19:54:02.615,99,47190.18564987501,0.0302734375,-0.98101806640625,0.007232666015625
2015-04-16 19:54:02.617,100,47190.19537183334,0.031158447265625,-0.98004150390625,0.0042724609375
2015-04-16 19:54:02.628,101,47190.20508966667,0.0330657958984375,-0.9800262451171875,0.0052337646484375
2015-04-16 19:54:02.639,102,47190.214814125,0.0330963134765625,-0.980987548828125,0.0062255859375
2015-04-16 19:54:02.647,103,47190.22465416667,0.0330657958984375,-0.98382568359375,0.0033111572265625
2015-04-16 19:54:02.697,104,47190.23435208334,0.0330657958984375,-0.9790802001953125,0.0052337646484375
2015-04-16 19:54:02.698,105,47190.24396983333,0.030181884765625,-0.98004150390625,0.0013427734375
2015-04-16 19:54:02.698,106,47190.25369104167,0.0264739990234375,-0.9810638427734375,0.00628662109375
2015-04-16 19:54:02.699,107,47190.265359625,0.03216552734375,-0.9828948974609375,0.0062408447265625
2015-04-16 19:54:02.700,108,47190.27507600001,0.0292816162109375,-0.9838714599609375,0.0033416748046875
2015-04-16 19:54:02.707,109,47190.284796625,0.034912109375,-0.983795166015625,-0.0006256103515625
2015-04-16 19:54:02.717,110,47190.29451779167,0.0302276611328125,-0.983856201171875,0.0033416748046875
2015-04-16 19:54:02.726,111,47190.30423333334,0.0282440185546875,-0.9800567626953125,-0.0015869140625
2015-04-16 19:54:02.738,112,47190.31589545833,0.0322265625,-0.986724853515625,0.00921630859375
2015-04-16 19:54:02.748,113,47190.32561695833,0.033172607421875,-0.98480224609375,0.0101776123046875
2015-04-16 19:54:02.771,114,47190.335339,0.0321044921875,-0.9800262451171875,0.0042724609375
2015-04-16 19:54:02.802,115,47190.34505516667,0.031158447265625,-0.979095458984375,0.0042724609375
2015-04-16 19:54:02.803,116,47190.35477670834,0.0264434814453125,-0.982940673828125,0.00335693359375
2015-04-16 19:54:02.804,117,47190.36449391667,0.033050537109375,-0.9819183349609375,0.0023193359375
2015-04-16 19:54:02.804,118,47190.37615995834,0.03497314453125,-0.9847564697265625,0.0032958984375
2015-04-16 19:54:02.809,119,47190.38599133334,0.0310821533203125,-0.9771728515625,-0.000640869140625
2015-04-16 19:54:02.818,120,47190.39560016667,0.0291900634765625,-0.98004150390625,-0.0016021728515625
2015-04-16 19:54:02.828,121,47190.405442875,0.0301666259765625,-0.9790802001953125,0.0003662109375
2015-04-16 19:54:02.839,122,47190.415172,0.0339813232421875,-0.9790496826171875,0.003265380859375
2015-04-16 19:54:02.848,123,47190.42486925,0.0349578857421875,-0.98284912109375,0.0032806396484375
2015-04-16 19:54:02.870,124,47190.43450520834,0.034912109375,-0.9818878173828125,0.000335693359375
2015-04-16 19:54:02.895,125,47190.44419179167,0.035888671875,-0.97998046875,0.0042266845703125
2015-04-16 19:54:02.896,126,47190.45391020834,0.03118896484375,-0.98101806640625,0.0052642822265625
2015-04-16 19:54:02.896,127,47190.46362929167,0.03399658203125,-0.9847412109375,0.0003509521484375
2015-04-16 19:54:02.897,128,47190.47334966667,0.0320281982421875,-0.981903076171875,-0.0035552978515625
2015-04-16 19:54:02.905,129,47190.48307691667,0.033050537109375,-0.9819183349609375,0.0023193359375
2015-04-16 19:54:02.915,130,47190.492790625,0.03125,-0.98291015625,0.008209228515625
2015-04-16 19:54:02.925,131,47190.50251625,0.03497314453125,-0.98284912109375,0.0042572021484375
2015-04-16 19:54:02.935,132,47190.51223133333,0.0340423583984375,-0.9895172119140625,0.0013427734375
2015-04-16 19:54:02.944,133,47190.52206879167,0.0302734375,-0.98291015625,0.006256103515625
2015-04-16 19:54:02.954,134,47190.531665,0.0339508056640625,-0.97998046875,0.0003204345703125
2015-04-16 19:54:02.969,135,47190.54137920833,0.035888671875,-0.983795166015625,0.001312255859375
2015-04-16 19:54:02.993,136,47190.55110954167,0.030242919921875,-0.9800567626953125,0.0062408447265625
2015-04-16 19:54:02.994,137,47190.56082054167,0.0377960205078125,-0.9837799072265625,0.002288818359375
2015-04-16 19:54:02.994,138,47190.57053895834,0.0377960205078125,-0.980926513671875,0.0042266845703125
2015-04-16 19:54:03.002,139,47190.58025320833,0.0339813232421875,-0.9790496826171875,0.002288818359375
2015-04-16 19:54:03.012,140,47190.58997683333,0.033111572265625,-0.982879638671875,0.0062255859375
2015-04-16 19:54:03.023,141,47190.59969675,0.03302001953125,-0.9857025146484375,-0.0016021728515625
2015-04-16 19:54:03.033,142,47190.60941379167,0.035888671875,-0.9856719970703125,0.000335693359375
2015-04-16 19:54:03.042,143,47190.61925420834,0.0386505126953125,-0.981842041015625,-0.002655029296875
2015-04-16 19:54:03.051,144,47190.62885133333,0.0340423583984375,-0.9809722900390625,0.0062103271484375
2015-04-16 19:54:03.071,145,47190.64058066667,0.03497314453125,-0.9838104248046875,0.0042724609375
2015-04-16 19:54:03.099,146,47190.65023266667,0.0330657958984375,-0.9828643798828125,0.0032958984375
2015-04-16 19:54:03.100,147,47190.65995445834,0.0340728759765625,-0.9857177734375,0.0062255859375
2015-04-16 19:54:03.101,148,47190.66967016667,0.037811279296875,-0.982818603515625,0.0042266845703125
2015-04-16 19:54:03.102,149,47190.67938812501,0.035003662109375,-0.9809722900390625,0.0071868896484375
2015-04-16 19:54:03.112,150,47190.68921791667,0.03594970703125,-0.98284912109375,0.006195068359375
2015-04-16 19:54:03.122,151,47190.69882904167,0.032135009765625,-0.9810028076171875,0.0052642822265625
2015-04-16 19:54:03.131,152,47190.70867308334,0.038818359375,-0.9856719970703125,0.0071563720703125
2015-04-16 19:54:03.141,153,47190.71829970834,0.0369110107421875,-0.985687255859375,0.0062103271484375
2015-04-16 19:54:03.150,154,47190.72799154167,0.035919189453125,-0.98095703125,0.005218505859375
2015-04-16 19:54:03.170,155,47190.73770670834,0.0320892333984375,-0.9771728515625,0.0042572021484375
2015-04-16 19:54:03.195,156,47190.74742558334,0.0377960205078125,-0.979034423828125,0.00518798828125
2015-04-16 19:54:03.196,157,47190.75714575,0.0349273681640625,-0.9790496826171875,0.003265380859375
2015-04-16 19:54:03.197,158,47190.76688729167,0.034942626953125,-0.98095703125,0.0023040771484375
2015-04-16 19:54:03.199,159,47190.7765835,0.0387115478515625,-0.979949951171875,0.0022430419921875
2015-04-16 19:54:03.209,160,47190.78630929167,0.0321044921875,-0.9790802001953125,0.0042724609375
2015-04-16 19:54:03.218,161,47190.79609216667,0.0387420654296875,-0.9818572998046875,0.00421142578125
2015-04-16 19:54:03.229,162,47190.80585212501,0.035888671875,-0.9818878173828125,0.002288818359375
2015-04-16 19:54:03.240,163,47190.81743741667,0.036834716796875,-0.9799652099609375,0.0042266845703125
2015-04-16 19:54:03.249,164,47190.82712504167,0.0330352783203125,-0.980010986328125,0.0023040771484375
2015-04-16 19:54:03.270,165,47190.83686591667,0.033966064453125,-0.9818878173828125,0.000335693359375
2015-04-16 19:54:03.295,166,47190.84656170833,0.036865234375,-0.982818603515625,0.004241943359375
2015-04-16 19:54:03.296,167,47190.856282,0.0358734130859375,-0.97998046875,0.0032501220703125
2015-04-16 19:54:03.296,168,47190.86601112501,0.031097412109375,-0.9838409423828125,-0.0025634765625
2015-04-16 19:54:03.299,169,47190.87571808333,0.033050537109375,-0.9809722900390625,0.0032958984375
2015-04-16 19:54:03.309,170,47190.88549925001,0.0321502685546875,-0.983856201171875,0.005279541015625
2015-04-16 19:54:03.317,171,47190.89516495834,0.0377349853515625,-0.9809112548828125,-0.00067138671875
2015-04-16 19:54:03.328,172,47190.90498850001,0.0359344482421875,-0.9838104248046875,0.0052337646484375
2015-04-16 19:54:03.338,173,47190.91472362501,0.0396270751953125,-0.9818267822265625,-0.0006866455078125
2015-04-16 19:54:03.348,174,47190.92439395834,0.0368194580078125,-0.9780731201171875,0.0042266845703125
2015-04-16 19:54:03.370,175,47190.93414716667,0.0330810546875,-0.980987548828125,0.0052490234375
2015-04-16 19:54:03.395,176,47190.94375608334,0.0312042236328125,-0.9800567626953125,0.0072021484375
2015-04-16 19:54:03.395,177,47190.953478625,0.03314208984375,-0.9828948974609375,0.0091705322265625
2015-04-16 19:54:03.396,178,47190.96319729167,0.0311737060546875,-0.9800567626953125,0.0052490234375
2015-04-16 19:54:03.397,179,47190.972917625,0.0349578857421875,-0.9838104248046875,0.0032958984375
2015-04-16 19:54:03.407,180,47190.98267025,0.0368499755859375,-0.9847259521484375,0.001312255859375
2015-04-16 19:54:03.414,181,47190.99235895833,0.0292205810546875,-0.985748291015625,-0.0025482177734375
2015-04-16 19:54:03.425,182,47191.002229625,0.0311737060546875,-0.9791107177734375,0.0052490234375
2015-04-16 19:54:03.434,183,47191.01179633334,0.035858154296875,-0.980926513671875,0.0003204345703125
2015-04-16 19:54:03.444,184,47191.02162504167,0.0331268310546875,-0.98193359375,0.0081939697265625
2015-04-16 19:54:03.455,185,47191.03127025,0.0377349853515625,-0.9828033447265625,-0.0016632080078125
2015-04-16 19:54:03.504,186,47191.04095158334,0.0321044921875,-0.980987548828125,0.0033111572265625
2015-04-16 19:54:03.505,187,47191.05068083334,0.0340118408203125,-0.98095703125,0.0042572021484375
2015-04-16 19:54:03.506,188,47191.060397375,0.03497314453125,-0.9838104248046875,0.0042724609375
2015-04-16 19:54:03.506,189,47191.07011025,0.034942626953125,-0.98284912109375,0.001312255859375
2015-04-16 19:54:03.507,190,47191.079829125,0.0358428955078125,-0.9799652099609375,0.00030517578125
2015-04-16 19:54:03.512,191,47191.08960266667,0.033111572265625,-0.9838409423828125,0.0062408447265625
2015-04-16 19:54:03.523,192,47191.09938333333,0.0302276611328125,-0.9791107177734375,0.0052642822265625
2015-04-16 19:54:03.531,193,47191.10898775001,0.0311737060546875,-0.983856201171875,0.003326416015625
2015-04-16 19:54:03.542,194,47191.11883441667,0.0301513671875,-0.98193359375,-0.0015869140625
2015-04-16 19:54:03.552,195,47191.128426625,0.031158447265625,-0.98004150390625,0.0042724609375
2015-04-16 19:54:03.614,196,47191.13814816667,0.0340118408203125,-0.98284912109375,0.0032806396484375
2015-04-16 19:54:03.615,197,47191.14786720834,0.032989501953125,-0.9790496826171875,-0.000640869140625
2015-04-16 19:54:03.615,198,47191.15758458334,0.0293121337890625,-0.9810333251953125,0.006256103515625
2015-04-16 19:54:03.616,199,47191.167303125,0.0292510986328125,-0.9800567626953125,0.0033111572265625
2015-04-16 19:54:03.617,200,47191.17702604167,0.032196044921875,-0.9838714599609375,0.0092010498046875
2015-04-16 19:54:03.619,201,47191.18674375,0.0302581787109375,-0.9791107177734375,0.0072174072265625
2015-04-16 19:54:03.621,202,47191.19646258334,0.031219482421875,-0.9800567626953125,0.0081939697265625
2015-04-16 19:54:03.629,203,47191.20617941667,0.031158447265625,-0.9810028076171875,0.0023345947265625
2015-04-16 19:54:03.639,204,47191.21600866667,0.0283355712890625,-0.9819793701171875,0.0043182373046875
2015-04-16 19:54:03.648,205,47191.22561754167,0.030181884765625,-0.98193359375,0.0003814697265625
2015-04-16 19:54:03.671,206,47191.235449,0.0274505615234375,-0.9810638427734375,0.0092315673828125
2015-04-16 19:54:03.697,207,47191.24505529167,0.0368194580078125,-0.9828033447265625,0.0003204345703125
2015-04-16 19:54:03.697,208,47191.25477570834,0.0321197509765625,-0.979095458984375,0.0052490234375
2015-04-16 19:54:03.698,209,47191.26449716667,0.03399658203125,-0.981903076171875,0.0023040771484375
2015-04-16 19:54:03.700,210,47191.27421391667,0.0264129638671875,-0.981048583984375,0.0013885498046875
2015-04-16 19:54:03.707,211,47191.28393908334,0.031158447265625,-0.9819488525390625,0.0033111572265625
2015-04-16 19:54:03.716,212,47191.29365945834,0.03021240234375,-0.9819488525390625,0.003326416015625
2015-04-16 19:54:03.725,213,47191.30337358334,0.0377197265625,-0.979949951171875,-0.0006866455078125
2015-04-16 19:54:03.736,214,47191.31309216667,0.0311737060546875,-0.983856201171875,0.002349853515625
2015-04-16 19:54:03.746,215,47191.32281520834,0.036865234375,-0.982818603515625,0.004241943359375
2015-04-16 19:54:03.755,216,47191.33264420833,0.027374267578125,-0.9848175048828125,0.00042724609375
2015-04-16 19:54:03.793,217,47191.34225075,0.03118896484375,-0.9800567626953125,0.0062255859375
2015-04-16 19:54:03.794,218,47191.35196954167,0.0368499755859375,-0.98187255859375,0.004241943359375
2015-04-16 19:54:03.794,219,47191.36168820834,0.032196044921875,-0.98480224609375,0.007232666015625
2015-04-16 19:54:03.795,220,47191.37140870834,0.03204345703125,-0.9819183349609375,-0.0016021728515625
2015-04-16 19:54:03.804,221,47191.38113454167,0.024505615234375,-0.9810638427734375,0.0004425048828125
2015-04-16 19:54:03.816,222,47191.39279679167,0.035919189453125,-0.977142333984375,0.00714111328125
2015-04-16 19:54:03.825,223,47191.40251395834,0.03021240234375,-0.983856201171875,0.001373291015625
2015-04-16 19:54:03.835,224,47191.41229650001,0.0340118408203125,-0.9838104248046875,0.0032958984375
2015-04-16 19:54:03.845,225,47191.422112375,0.0321197509765625,-0.982879638671875,0.0023345947265625
2015-04-16 19:54:03.854,226,47191.43167691667,0.0330352783203125,-0.9819183349609375,0.0013275146484375
2015-04-16 19:54:03.869,227,47191.44139716667,0.032073974609375,-0.976226806640625,0.0032806396484375
2015-04-16 19:54:03.894,228,47191.45111458334,0.034942626953125,-0.9799957275390625,0.004241943359375
2015-04-16 19:54:03.895,229,47191.46083700001,0.0330810546875,-0.98382568359375,0.0042877197265625
2015-04-16 19:54:03.896,230,47191.47055983334,0.0397796630859375,-0.9847259521484375,0.009124755859375
2015-04-16 19:54:03.903,231,47191.4802835,0.0377655029296875,-0.98187255859375,0.00128173828125
2015-04-16 19:54:03.913,232,47191.49010566667,0.023590087890625,-0.9791717529296875,0.0043487548828125
2015-04-16 19:54:03.921,233,47191.49971145834,0.0255126953125,-0.983917236328125,0.004364013671875
2015-04-16 19:54:03.933,234,47191.50953195833,0.0311279296875,-0.98193359375,0.0003662109375
2015-04-16 19:54:03.942,235,47191.51915458334,0.036041259765625,-0.9961700439453125,0.0062713623046875
2015-04-16 19:54:03.952,236,47191.52898233334,0.0340423583984375,-0.9857025146484375,0.0042724609375
2015-04-16 19:54:03.970,237,47191.5385945,0.0396575927734375,-0.9780426025390625,0.0041961669921875
2015-04-16 19:54:03.995,238,47191.5483105,0.0255126953125,-0.975372314453125,0.00921630859375
2015-04-16 19:54:03.995,239,47191.55803320833,0.0292205810546875,-0.9819488525390625,-0.0005950927734375
2015-04-16 19:54:03.996,240,47191.567752125,0.0150909423828125,-0.9878387451171875,0.0015411376953125
2015-04-16 19:54:04.002,241,47191.57747320834,0.0273895263671875,-0.9819793701171875,0.00433349609375
2015-04-16 19:54:04.009,242,47191.587190625,0.0385894775390625,-0.9732818603515625,-0.0027008056640625
2015-04-16 19:54:04.020,243,47191.59703300001,0.0359039306640625,-0.9809417724609375,0.004241943359375
2015-04-16 19:54:04.029,244,47191.606739,0.0330963134765625,-0.9866790771484375,0.003326416015625
2015-04-16 19:54:04.039,245,47191.61634658334,0.03497314453125,-0.9914093017578125,-0.0005950927734375
2015-04-16 19:54:04.049,246,47191.62606970833,0.030181884765625,-0.979095458984375,0.0013427734375
2015-04-16 19:54:04.070,247,47191.63589654167,0.0262908935546875,-0.9752960205078125,-0.0045318603515625
2015-04-16 19:54:04.094,248,47191.64550666667,0.0311279296875,-0.9771881103515625,0.0023040771484375
2015-04-16 19:54:04.095,249,47191.65522708333,0.04168701171875,-0.991363525390625,0.006195068359375
2015-04-16 19:54:04.096,250,47191.66494533334,0.0416107177734375,-0.9837493896484375,0.00518798828125
2015-04-16 19:54:04.098,251,47191.674666625,0.0254364013671875,-0.975341796875,0.0033416748046875
2015-04-16 19:54:04.106,252,47191.68438470834,0.0358428955078125,-0.9771270751953125,0.0012664794921875
2015-04-16 19:54:04.116,253,47191.69410404167,0.0331268310546875,-0.9838409423828125,0.0072174072265625
2015-04-16 19:54:04.126,254,47191.70382208333,0.034027099609375,-0.9857025146484375,0.0023193359375
2015-04-16 19:54:04.136,255,47191.71367791667,0.035980224609375,-0.986663818359375,0.0062255859375
2015-04-16 19:54:04.146,256,47191.72337754167,0.0396270751953125,-0.977081298828125,0.0012359619140625
2015-04-16 19:54:04.156,257,47191.733088125,0.0396881103515625,-0.98089599609375,0.00421142578125
2015-04-16 19:54:04.169,258,47191.742696125,0.0425262451171875,-0.9837188720703125,0.0032196044921875
2015-04-16 19:54:04.194,259,47191.75241804167,0.0321197509765625,-0.9857330322265625,0.0013580322265625
2015-04-16 19:54:04.195,260,47191.76213416667,0.0368194580078125,-0.9828033447265625,0.0003204345703125
2015-04-16 19:54:04.195,261,47191.7718575,0.03680419921875,-0.9799652099609375,0.00128173828125
2015-04-16 19:54:04.204,262,47191.78158491667,0.047210693359375,-0.97796630859375,0.0011749267578125
2015-04-16 19:54:04.214,263,47191.79139991667,0.0424346923828125,-0.9770355224609375,-0.0007476806640625
2015-04-16 19:54:04.224,264,47191.80112512501,0.04449462890625,-0.9903564453125,0.00225830078125
2015-04-16 19:54:04.234,265,47191.81073479167,0.0348968505859375,-0.9818878173828125,-0.000640869140625
2015-04-16 19:54:04.243,266,47191.82047308334,0.0443572998046875,-0.9789276123046875,-0.0007476806640625
2015-04-16 19:54:04.252,267,47191.83017062501,0.039642333984375,-0.9799346923828125,0.001251220703125
2015-04-16 19:54:04.271,268,47191.839884875,0.05108642578125,-0.9855194091796875,0.004119873046875
2015-04-16 19:54:04.296,269,47191.84960125,0.0596466064453125,-0.9835357666015625,0.0079498291015625
2015-04-16 19:54:04.296,270,47191.859323,0.042572021484375,-0.9827728271484375,0.006134033203125
2015-04-16 19:54:04.297,271,47191.86904291667,0.0388031005859375,-0.97998046875,0.0100860595703125
2015-04-16 19:54:04.302,272,47191.878758125,0.03302001953125,-0.980010986328125,0.001312255859375
2015-04-16 19:54:04.311,273,47191.88863608333,0.03216552734375,-0.983856201171875,0.006256103515625
2015-04-16 19:54:04.322,274,47191.89825125,0.0474090576171875,-0.9884490966796875,0.0100555419921875
2015-04-16 19:54:04.331,275,47191.908025375,0.0576934814453125,-0.985443115234375,0.0020904541015625
2015-04-16 19:54:04.340,276,47191.91774500001,0.0538177490234375,-0.977874755859375,0.0001373291015625
2015-04-16 19:54:04.349,277,47191.92735279167,0.05194091796875,-0.980743408203125,-0.0008087158203125
2015-04-16 19:54:04.370,278,47191.93707583334,0.0434722900390625,-0.9817962646484375,0.0031890869140625
2015-04-16 19:54:04.396,279,47191.94679,0.043487548828125,-0.9827423095703125,0.0022125244140625
2015-04-16 19:54:04.397,280,47191.95651125001,0.0425567626953125,-0.986572265625,0.00323486328125
2015-04-16 19:54:04.398,281,47191.966226875,0.0453643798828125,-0.9798736572265625,0.0041351318359375
2015-04-16 19:54:04.401,282,47191.97594716667,0.052886962890625,-0.9778900146484375,0.0011138916015625
2015-04-16 19:54:04.408,283,47191.98578441667,0.0511016845703125,-0.9893341064453125,0.0031585693359375
2015-04-16 19:54:04.418,284,47191.99538937501,0.05010986328125,-0.9864654541015625,0.000213623046875
2015-04-16 19:54:04.428,285,47192.00521575,0.0501556396484375,-0.9874267578125,0.0041351318359375
2015-04-16 19:54:04.437,286,47192.01482266667,0.0482177734375,-0.9836578369140625,0.0031585693359375
2015-04-16 19:54:04.449,287,47192.024653,0.04541015625,-0.9817962646484375,0.006103515625
2015-04-16 19:54:04.472,288,47192.03426458334,0.05010986328125,-0.9836273193359375,0.003143310546875
2015-04-16 19:54:04.498,289,47192.04398316667,0.0482940673828125,-0.983673095703125,0.008056640625
2015-04-16 19:54:04.498,290,47192.05370179167,0.0482330322265625,-0.9798583984375,0.0060577392578125
2015-04-16 19:54:04.499,291,47192.06342104167,0.049163818359375,-0.9788970947265625,0.0050811767578125
2015-04-16 19:54:04.500,292,47192.07315312501,0.0425262451171875,-0.9761199951171875,0.006103515625
2015-04-16 19:54:04.505,293,47192.08285745834,0.04443359375,-0.9827423095703125,0.0031890869140625
2015-04-16 19:54:04.516,294,47192.09257920834,0.0500640869140625,-0.985504150390625,-0.00177001953125
2015-04-16 19:54:04.525,295,47192.10240945833,0.0586700439453125,-0.978790283203125,0.0079345703125
2015-04-16 19:54:04.535,296,47192.11201675,0.0538787841796875,-0.97314453125,0.0069580078125
2015-04-16 19:54:04.545,297,47192.12173462501,0.0453338623046875,-0.9779815673828125,0.0031585693359375
2015-04-16 19:54:04.554,298,47192.1315755,0.048248291015625,-0.9827117919921875,0.005096435546875
2015-04-16 19:54:04.596,299,47192.141168875,0.0473175048828125,-0.9874725341796875,0.0041656494140625
2015-04-16 19:54:04.597,300,47192.15088845834,0.0482330322265625,-0.978912353515625,0.0060577392578125
2015-04-16 19:54:04.597,301,47192.16060891667,0.048187255859375,-0.974151611328125,0.00506591796875
2015-04-16 19:54:04.598,302,47192.170330125,0.051971435546875,-0.97979736328125,0.0030975341796875
2015-04-16 19:54:04.603,303,47192.18004554167,0.0472564697265625,-0.987457275390625,-0.000732421875
2015-04-16 19:54:04.614,304,47192.18988108334,0.03778076171875,-0.982818603515625,0.00128173828125
2015-04-16 19:54:04.623,305,47192.19959333334,0.0432891845703125,-0.969390869140625,-0.004730224609375
2015-04-16 19:54:04.632,306,47192.20920112501,0.0376129150390625,-0.9694671630859375,-0.0036773681640625
2015-04-16 19:54:04.642,307,47192.219029125,0.041473388671875,-0.9808502197265625,-0.004638671875
2015-04-16 19:54:04.651,308,47192.2287475,0.04150390625,-0.985595703125,-0.0046234130859375
2015-04-16 19:54:04.669,309,47192.23835741667,0.0396881103515625,-0.9837493896484375,0.0032501220703125
2015-04-16 19:54:04.695,310,47192.24809454167,0.0405731201171875,-0.977081298828125,0.001220703125
2015-04-16 19:54:04.696,311,47192.25779,0.041595458984375,-0.977081298828125,0.0070953369140625
2015-04-16 19:54:04.696,312,47192.267507625,0.0302276611328125,-0.9828948974609375,0.003326416015625
2015-04-16 19:54:04.699,313,47192.27722691667,0.034149169921875,-0.9895477294921875,0.0101776123046875
2015-04-16 19:54:04.710,314,47192.28710075,0.03985595703125,-0.9904327392578125,0.0111236572265625
2015-04-16 19:54:04.719,315,47192.29678916667,0.0435791015625,-0.98468017578125,0.0090789794921875
2015-04-16 19:54:04.729,316,47192.30646245833,0.0453948974609375,-0.9751434326171875,0.0090179443359375
2015-04-16 19:54:04.739,317,47192.31621054167,0.0406951904296875,-0.9837646484375,0.00714111328125
2015-04-16 19:54:04.749,318,47192.32581995834,0.0312347412109375,-0.9857635498046875,0.006256103515625
2015-04-16 19:54:04.770,319,47192.335647375,0.0265655517578125,-0.9896240234375,0.0082855224609375
2015-04-16 19:54:04.795,320,47192.345256375,0.0320281982421875,-0.980010986328125,-0.001617431640625
2015-04-16 19:54:04.796,321,47192.354972375,0.0349273681640625,-0.9828338623046875,0.000335693359375
2015-04-16 19:54:04.796,322,47192.36469525001,0.0471038818359375,-0.977935791015625,-0.006683349609375
2015-04-16 19:54:04.798,323,47192.37441308334,0.047149658203125,-0.9769744873046875,-0.0037384033203125
2015-04-16 19:54:04.807,324,47192.38426125,0.0424041748046875,-0.9798736572265625,-0.004669189453125
2015-04-16 19:54:04.816,325,47192.39385975,0.03955078125,-0.980865478515625,-0.006591796875
2015-04-16 19:54:04.827,326,47192.40369779167,0.0395660400390625,-0.9761199951171875,-0.002685546875
2015-04-16 19:54:04.839,327,47192.41534529167,0.042633056640625,-0.9837493896484375,0.0110626220703125
2015-04-16 19:54:04.848,328,47192.42506425,0.04266357421875,-0.9856414794921875,0.0120391845703125
2015-04-16 19:54:04.869,329,47192.43467708334,0.038909912109375,-0.986663818359375,0.0130767822265625
2015-04-16 19:54:04.893,330,47192.44438954167,0.035980224609375,-0.9819183349609375,0.0101318359375
2015-04-16 19:54:04.894,331,47192.45416425,0.043609619140625,-0.983734130859375,0.01202392578125
2015-04-16 19:54:04.894,332,47192.46383391667,0.039764404296875,-0.980926513671875,0.010101318359375
2015-04-16 19:54:04.896,333,47192.47355029167,0.03204345703125,-0.97906494140625,-0.0006256103515625
2015-04-16 19:54:04.906,334,47192.48338129167,0.03497314453125,-0.98284912109375,0.0042572021484375
2015-04-16 19:54:04.916,335,47192.49299254167,0.035797119140625,-0.979949951171875,-0.0036163330078125
2015-04-16 19:54:04.926,336,47192.50275429167,0.0319671630859375,-0.977142333984375,-0.00555419921875
2015-04-16 19:54:04.934,337,47192.51243029167,0.0386199951171875,-0.978973388671875,-0.004638671875
2015-04-16 19:54:04.945,338,47192.5222585,0.041473388671875,-0.97894287109375,-0.003662109375
2015-04-16 19:54:04.955,339,47192.53198870834,0.03204345703125,-0.97906494140625,-0.0006256103515625
2015-04-16 19:54:04.996,340,47192.541584125,0.0301361083984375,-0.9800262451171875,-0.0016021728515625
2015-04-16 19:54:04.997,341,47192.551306,0.0339202880859375,-0.98187255859375,-0.0035858154296875
2015-04-16 19:54:04.997,342,47192.56103658333,0.031158447265625,-0.9819488525390625,0.0023345947265625
2015-04-16 19:54:04.998,343,47192.570744875,0.0255279541015625,-0.985809326171875,0.004364013671875
2015-04-16 19:54:05.006,344,47192.582533,0.0253753662109375,-0.9781951904296875,-0.002532958984375
2015-04-16 19:54:05.015,345,47192.59212733334,0.025482177734375,-0.9810638427734375,0.0023956298828125
2015-04-16 19:54:05.026,346,47192.60378991667,0.0255889892578125,-0.98394775390625,0.01025390625
2015-04-16 19:54:05.036,347,47192.61352233333,0.0255889892578125,-0.98583984375,0.0092620849609375
2015-04-16 19:54:05.046,348,47192.62322679167,0.0332183837890625,-0.990509033203125,0.0102081298828125
2015-04-16 19:54:05.068,349,47192.63307383333,0.0292816162109375,-0.9791259765625,0.0052642822265625
2015-04-16 19:54:05.097,350,47192.64266329167,0.027374267578125,-0.9781951904296875,0.0052947998046875
2015-04-16 19:54:05.098,351,47192.65238370834,0.0282440185546875,-0.9791107177734375,-0.0015869140625
2015-04-16 19:54:05.099,352,47192.66210145834,0.01983642578125,-0.98492431640625,0.002471923828125
2015-04-16 19:54:05.099,353,47192.671821,0.02069091796875,-0.9820404052734375,-0.001495361328125
2015-04-16 19:54:05.103,354,47192.681543625,0.021636962890625,-0.978240966796875,0.0004425048828125
2015-04-16 19:54:05.114,355,47192.69126745834,0.022613525390625,-0.9810791015625,0.000457763671875
2015-04-16 19:54:05.125,356,47192.70292045834,0.0254669189453125,-0.9839019775390625,0.0004425048828125
2015-04-16 19:54:05.135,357,47192.71274358334,0.024505615234375,-0.9829559326171875,-0.0005340576171875
2015-04-16 19:54:05.145,358,47192.72246641667,0.01873779296875,-0.97540283203125,-0.0015106201171875
2015-04-16 19:54:05.156,359,47192.7321845,0.024505615234375,-0.9820098876953125,0.0004425048828125
2015-04-16 19:54:05.168,360,47192.741791125,0.027374267578125,-0.9791259765625,0.0043182373046875
2015-04-16 19:54:05.195,361,47192.751511,0.0377960205078125,-0.982818603515625,0.0032501220703125
2015-04-16 19:54:05.195,362,47192.76123204167,0.0330657958984375,-0.9809722900390625,0.0042724609375
2015-04-16 19:54:05.196,363,47192.77095220834,0.034027099609375,-0.97906494140625,0.006195068359375
2015-04-16 19:54:05.203,364,47192.78068083333,0.03118896484375,-0.98101806640625,0.0052642822265625
2015-04-16 19:54:05.213,365,47192.79038441667,0.0312652587890625,-0.98388671875,0.01019287109375
2015-04-16 19:54:05.223,366,47192.80010308333,0.034027099609375,-0.9819183349609375,0.0052337646484375
2015-04-16 19:54:05.233,367,47192.80982204167,0.039764404296875,-0.9837799072265625,0.009124755859375
2015-04-16 19:54:05.242,368,47192.81954191667,0.039794921875,-0.9847259521484375,0.0101165771484375
2015-04-16 19:54:05.254,369,47192.83120741667,0.0378570556640625,-0.9790496826171875,0.010101318359375
2015-04-16 19:54:05.270,370,47192.84091620833,0.035980224609375,-0.9838104248046875,0.0081787109375
2015-04-16 19:54:05.295,371,47192.85063416667,0.0397491455078125,-0.9828033447265625,0.00714111328125
2015-04-16 19:54:05.295,372,47192.86035745834,0.034881591796875,-0.9818878173828125,-0.0016326904296875
2015-04-16 19:54:05.296,373,47192.87007487501,0.045379638671875,-0.9836883544921875,0.0022125244140625
2015-04-16 19:54:05.304,374,47192.87979095834,0.0491180419921875,-0.982666015625,-0.0007781982421875
2015-04-16 19:54:05.312,375,47192.88962,0.0547943115234375,-0.979766845703125,0.0010986328125
2015-04-16 19:54:05.321,376,47192.89923158334,0.0434722900390625,-0.9855804443359375,0.0002593994140625
2015-04-16 19:54:05.332,377,47192.90894737501,0.046234130859375,-0.9779510498046875,-0.000762939453125
2015-04-16 19:54:05.341,378,47192.91878775,0.038665771484375,-0.981842041015625,-0.001678466796875
2015-04-16 19:54:05.351,379,47192.9283825,0.0471649169921875,-0.9779510498046875,-0.00177001953125
2015-04-16 19:54:05.370,380,47192.93810858334,0.0548553466796875,-0.9788360595703125,0.0059967041015625
2015-04-16 19:54:05.394,381,47192.94782183334,0.0623931884765625,-0.9806365966796875,0.0020294189453125
2015-04-16 19:54:05.395,382,47192.95754520834,0.05859375,-0.9797210693359375,0.0030364990234375
2015-04-16 19:54:05.395,383,47192.96726608334,0.0539703369140625,-0.981719970703125,0.0099639892578125
2015-04-16 19:54:05.400,384,47192.976986375,0.054931640625,-0.9817047119140625,0.01092529296875
2015-04-16 19:54:05.409,385,47192.98670366667,0.0587310791015625,-0.981658935546875,0.011871337890625
2015-04-16 19:54:05.418,386,47192.99642,0.0634613037109375,-0.9844512939453125,0.0098876953125
2015-04-16 19:54:05.429,387,47193.00625454167,0.067230224609375,-0.982513427734375,0.0088348388671875
2015-04-16 19:54:05.438,388,47193.01585833334,0.0643310546875,-0.9806365966796875,0.00592041015625
2015-04-16 19:54:05.449,389,47193.02557904167,0.0577545166015625,-0.9826202392578125,0.0089263916015625
2015-04-16 19:54:05.469,390,47193.03541616667,0.0529632568359375,-0.9741058349609375,0.008941650390625
2015-04-16 19:54:05.494,391,47193.0469595,0.05938720703125,-0.975860595703125,-0.0087738037109375
2015-04-16 19:54:05.494,392,47193.05668141667,0.057525634765625,-0.973052978515625,-0.0038604736328125
2015-04-16 19:54:05.495,393,47193.06640316667,0.05474853515625,-0.983551025390625,-0.0047607421875
2015-04-16 19:54:05.498,394,47193.07611933334,0.051971435546875,-0.982635498046875,0.0001678466796875
2015-04-16 19:54:05.508,395,47193.08583916667,0.0519256591796875,-0.9797821044921875,-0.000823974609375
2015-04-16 19:54:05.518,396,47193.09555879167,0.053009033203125,-0.9817047119140625,0.00799560546875
2015-04-16 19:54:05.528,397,47193.10531691667,0.051055908203125,-0.975067138671875,0.0070037841796875
2015-04-16 19:54:05.538,398,47193.11510979167,0.0462799072265625,-0.9798583984375,0.001190185546875
2015-04-16 19:54:05.548,399,47193.12482766667,0.0463714599609375,-0.9836883544921875,0.0061187744140625
2015-04-16 19:54:05.570,400,47193.13454283334,0.0463714599609375,-0.98272705078125,0.006103515625
2015-04-16 19:54:05.597,401,47193.14415825,0.047393798828125,-0.9903411865234375,0.007110595703125
2015-04-16 19:54:05.598,402,47193.15387404167,0.036956787109375,-0.9885406494140625,0.0072021484375
2015-04-16 19:54:05.599,403,47193.16359291667,0.038848876953125,-0.988525390625,0.007171630859375
2015-04-16 19:54:05.599,404,47193.17331220834,0.0396575927734375,-0.9789886474609375,0.0032196044921875
2015-04-16 19:54:05.606,405,47193.18303291667,0.0397491455078125,-0.98565673828125,0.0061798095703125
2015-04-16 19:54:05.618,406,47193.19469391667,0.04534912109375,-0.9789276123046875,0.0031585693359375
2015-04-16 19:54:05.627,407,47193.20442783333,0.0454254150390625,-0.9817962646484375,0.007080078125
2015-04-16 19:54:05.636,408,47193.21413379167,0.0349578857421875,-0.98284912109375,0.0023040771484375
2015-04-16 19:54:05.647,409,47193.22385675,0.0405731201171875,-0.978973388671875,0.0002593994140625
2015-04-16 19:54:05.669,410,47193.23371775,0.0387420654296875,-0.9828033447265625,0.00225830078125
2015-04-16 19:54:05.697,411,47193.24329125,0.0301666259765625,-0.9857330322265625,-0.0025482177734375
2015-04-16 19:54:05.697,412,47193.25301175001,0.033966064453125,-0.9818878173828125,0.000335693359375
2015-04-16 19:54:05.698,413,47193.26273225,0.04046630859375,-0.9704132080078125,-0.0027313232421875
2015-04-16 19:54:05.698,414,47193.27244975,0.0330963134765625,-0.9876251220703125,0.002349853515625
2015-04-16 19:54:05.705,415,47193.28230508334,0.0283355712890625,-0.9895782470703125,-0.00054931640625
2015-04-16 19:54:05.716,416,47193.29201045834,0.0244903564453125,-0.977264404296875,0.0013885498046875
2015-04-16 19:54:05.725,417,47193.3017635,0.0188140869140625,-0.9820709228515625,0.00048828125
2015-04-16 19:54:05.733,418,47193.31133429167,0.0094146728515625,-0.9831390380859375,0.0045013427734375
2015-04-16 19:54:05.744,419,47193.32105566667,0.02081298828125,-0.985870361328125,0.0053863525390625
2015-04-16 19:54:05.755,420,47193.3328225,0.00946044921875,-0.9879150390625,0.0055084228515625
2015-04-16 19:54:05.797,421,47193.34243104167,0.021728515625,-0.98681640625,0.00146484375
2015-04-16 19:54:05.798,422,47193.35215491667,0.01885986328125,-0.9773406982421875,0.0063323974609375
2015-04-16 19:54:05.799,423,47193.361873125,0.0255889892578125,-0.9782562255859375,0.0131683349609375
2015-04-16 19:54:05.799,424,47193.371592875,0.023651123046875,-0.9782562255859375,0.0102386474609375
2015-04-16 19:54:05.803,425,47193.38132516667,0.0123291015625,-0.98883056640625,0.0064544677734375
2015-04-16 19:54:05.815,426,47193.39104395833,0.0093994140625,-0.9831390380859375,0.0035247802734375
2015-04-16 19:54:05.823,427,47193.40076829167,0.0272979736328125,-0.9705657958984375,0.0032958984375
2015-04-16 19:54:05.832,428,47193.41047483333,0.022552490234375,-0.979156494140625,-0.00347900390625
2015-04-16 19:54:05.843,429,47193.420301875,0.0235748291015625,-0.982025146484375,0.0014190673828125
2015-04-16 19:54:05.851,430,47193.42990866667,0.02825927734375,-0.9828948974609375,-0.0035247802734375
2015-04-16 19:54:05.894,431,47193.43962783334,0.024505615234375,-0.9820098876953125,0.0004425048828125
2015-04-16 19:54:05.894,432,47193.44934941667,0.0272064208984375,-0.9800262451171875,-0.009429931640625
2015-04-16 19:54:05.895,433,47193.45906875,0.0310516357421875,-0.97906494140625,-0.0045623779296875
2015-04-16 19:54:05.896,434,47193.46878925,0.030029296875,-0.9723968505859375,-0.0065460205078125
2015-04-16 19:54:05.901,435,47193.478506375,0.03485107421875,-0.9799652099609375,-0.00360107421875
2015-04-16 19:54:05.911,436,47193.48833837501,0.028350830078125,-0.98577880859375,0.00238037109375
2015-04-16 19:54:05.921,437,47193.49794637501,0.0340423583984375,-0.98382568359375,0.0052490234375
2015-04-16 19:54:05.930,438,47193.507666875,0.0378265380859375,-0.97808837890625,0.0081329345703125
2015-04-16 19:54:05.940,439,47193.51738725,0.036895751953125,-0.9818878173828125,0.007171630859375
2015-04-16 19:54:05.950,440,47193.527105,0.033203125,-0.98956298828125,0.01019287109375
2015-04-16 19:54:05.970,441,47193.53682450001,0.0360260009765625,-0.9857177734375,0.0111236572265625
2015-04-16 19:54:05.994,442,47193.54848495834,0.0386810302734375,-0.9837493896484375,-0.0016632080078125
2015-04-16 19:54:05.995,443,47193.558203,0.0415802001953125,-0.9808807373046875,0.0041961669921875
2015-04-16 19:54:05.995,444,47193.567925125,0.0481109619140625,-0.979827880859375,-0.0027618408203125
2015-04-16 19:54:06.000,445,47193.577642,0.049072265625,-0.9722137451171875,0.001129150390625
2015-04-16 19:54:06.011,446,47193.58748941667,0.0377044677734375,-0.97900390625,-0.001678466796875
2015-04-16 19:54:06.020,447,47193.59720520834,0.0377349853515625,-0.9818572998046875,-0.00067138671875
2015-04-16 19:54:06.029,448,47193.60679975,0.041473388671875,-0.985595703125,-0.006591796875
2015-04-16 19:54:06.039,449,47193.61656866667,0.03582763671875,-0.976165771484375,0.0002899169921875
2015-04-16 19:54:06.049,450,47193.626239625,0.046295166015625,-0.9798583984375,0.0031585693359375
2015-04-16 19:54:06.070,451,47193.63595829167,0.05010986328125,-0.9769744873046875,0.0060272216796875
2015-04-16 19:54:06.100,452,47193.64567616667,0.0559234619140625,-0.9817047119140625,0.0148468017578125
2015-04-16 19:54:06.101,453,47193.65539341667,0.0549468994140625,-0.976959228515625,0.0138397216796875
2015-04-16 19:54:06.101,454,47193.66511595833,0.049285888671875,-0.9865264892578125,0.010040283203125
2015-04-16 19:54:06.102,455,47193.67483675,0.045562744140625,-0.9884796142578125,0.0130157470703125
2015-04-16 19:54:06.108,456,47193.68467008333,0.0482940673828125,-0.9836883544921875,0.009033203125
2015-04-16 19:54:06.117,457,47193.69427358334,0.051971435546875,-0.9741058349609375,0.005035400390625
2015-04-16 19:54:06.126,458,47193.70399679167,0.05206298828125,-0.982666015625,0.00701904296875
2015-04-16 19:54:06.136,459,47193.71371404167,0.0567474365234375,-0.985443115234375,0.002105712890625
2015-04-16 19:54:06.146,460,47193.72354166667,0.060577392578125,-0.9835357666015625,0.0069580078125
2015-04-16 19:54:06.169,461,47193.73326175,0.05767822265625,-0.9816436767578125,0.0040283203125
2015-04-16 19:54:06.199,462,47193.74287133334,0.049072265625,-0.9788665771484375,-0.0017852783203125
2015-04-16 19:54:06.200,463,47193.75258837501,0.0491180419921875,-0.977935791015625,0.0021514892578125
2015-04-16 19:54:06.200,464,47193.76230895834,0.0585479736328125,-0.979705810546875,-0.000885009765625
2015-04-16 19:54:06.201,465,47193.77202833333,0.0509796142578125,-0.9817047119140625,-0.0017852783203125
2015-04-16 19:54:06.205,466,47193.78186175,0.0567169189453125,-0.9816436767578125,0.0020904541015625
2015-04-16 19:54:06.214,467,47193.79146729167,0.055694580078125,-0.974029541015625,0.0001068115234375
2015-04-16 19:54:06.225,468,47193.80129904167,0.050994873046875,-0.97979736328125,0.0001678466796875
2015-04-16 19:54:06.234,469,47193.81091229167,0.0558624267578125,-0.9835968017578125,0.00897216796875
2015-04-16 19:54:06.243,470,47193.820632125,0.0539703369140625,-0.98455810546875,0.00701904296875
2015-04-16 19:54:06.253,471,47193.830473625,0.053070068359375,-0.9912261962890625,0.007049560546875
2015-04-16 19:54:06.294,472,47193.84006354167,0.0521392822265625,-0.982696533203125,0.0129241943359375
2015-04-16 19:54:06.295,473,47193.84978383334,0.052978515625,-0.9731597900390625,0.010894775390625
2015-04-16 19:54:06.295,474,47193.859503375,0.06060791015625,-0.983551025390625,0.009918212890625
2015-04-16 19:54:06.296,475,47193.86922358334,0.0568695068359375,-0.9883270263671875,0.0099639892578125
2015-04-16 19:54:06.302,476,47193.87894129167,0.0492095947265625,-0.9864959716796875,0.004150390625
2015-04-16 19:54:06.311,477,47193.88877829167,0.0472412109375,-0.9798583984375,0.002166748046875
2015-04-16 19:54:06.321,478,47193.89849191667,0.0453033447265625,-0.9751129150390625,0.0011749267578125
2015-04-16 19:54:06.331,479,47193.90821279167,0.0453338623046875,-0.977020263671875,0.002166748046875
2015-04-16 19:54:06.341,480,47193.917942,0.0443115234375,-0.9760589599609375,-0.0037078857421875
2015-04-16 19:54:06.350,481,47193.92754291667,0.04998779296875,-0.9779052734375,-0.002777099609375
2015-04-16 19:54:06.371,482,47193.93726366667,0.051849365234375,-0.979766845703125,-0.0067291259765625
2015-04-16 19:54:06.398,483,47193.94697833333,0.0507965087890625,-0.9702606201171875,-0.01068115234375
2015-04-16 19:54:06.399,484,47193.95669983334,0.0472869873046875,-0.9931640625,-0.0016937255859375
2015-04-16 19:54:06.399,485,47193.96641845834,0.045196533203125,-0.9760284423828125,-0.008636474609375
2015-04-16 19:54:06.401,486,47193.97614004167,0.036865234375,-0.9961090087890625,-0.0035247802734375
2015-04-16 19:54:06.409,487,47193.98591783334,0.04443359375,-0.986541748046875,0.000274658203125
2015-04-16 19:54:06.419,488,47193.99558666667,0.0605621337890625,-0.982574462890625,0.0059661865234375
2015-04-16 19:54:06.428,489,47194.005413375,0.056610107421875,-0.96832275390625,0.00103759765625
2015-04-16 19:54:06.438,490,47194.01502041667,0.0569000244140625,-0.9864501953125,0.012908935546875
2015-04-16 19:54:06.448,491,47194.02474004167,0.0578155517578125,-0.9854736328125,0.0118865966796875
2015-04-16 19:54:06.473,492,47194.03445945834,0.0465087890625,-0.987518310546875,0.0139923095703125
2015-04-16 19:54:06.500,493,47194.04417633334,0.04534912109375,-0.981781005859375,0.0012054443359375
2015-04-16 19:54:06.501,494,47194.05389883334,0.0472564697265625,-0.977020263671875,0.0050811767578125
2015-04-16 19:54:06.501,495,47194.06361941667,0.0472869873046875,-0.983673095703125,0.004150390625
2015-04-16 19:54:06.503,496,47194.07333654167,0.0501708984375,-0.9864959716796875,0.0051116943359375
2015-04-16 19:54:06.505,497,47194.08305450001,0.0425262451171875,-0.9884490966796875,-0.0006866455078125
2015-04-16 19:54:06.516,498,47194.09277491667,0.031982421875,-0.9723968505859375,-0.00164794921875
2015-04-16 19:54:06.527,499,47194.10444108333,0.03875732421875,-0.9837646484375,0.0042266845703125
2015-04-16 19:54:06.537,500,47194.11417879167,0.0473175048828125,-0.9884185791015625,0.0022125244140625
2015-04-16 19:54:06.547,501,47194.123881,0.0453033447265625,-0.9751129150390625,0.0011749267578125
2015-04-16 19:54:06.556,502,47194.1335985,0.05572509765625,-0.9759521484375,0.0010833740234375
2015-04-16 19:54:06.567,503,47194.14331583334,0.0377960205078125,-0.9837799072265625,0.003265380859375
2015-04-16 19:54:06.595,504,47194.15304179167,0.02545166015625,-0.981048583984375,0.00042724609375
2015-04-16 19:54:06.596,505,47194.16275483333,0.0293121337890625,-0.9914703369140625,0.00042724609375
2015-04-16 19:54:06.596,506,47194.17247345833,0.029144287109375,-0.9800262451171875,-0.005523681640625
2015-04-16 19:54:06.605,507,47194.18219495834,0.02728271484375,-0.9734039306640625,0.0003662109375
2015-04-16 19:54:06.615,508,47194.19199945834,0.037689208984375,-0.9770965576171875,-0.0016937255859375
2015-04-16 19:54:06.624,509,47194.20174166667,0.0426177978515625,-0.9941864013671875,0.004241943359375
2015-04-16 19:54:06.635,510,47194.21135012501,0.0349884033203125,-0.9857025146484375,0.0042724609375
2015-04-16 19:54:06.644,511,47194.2211815,0.0272979736328125,-0.9715118408203125,0.0023345947265625
2015-04-16 19:54:06.653,512,47194.23078675001,0.0188446044921875,-0.982086181640625,0.0034332275390625
2015-04-16 19:54:06.670,513,47194.24058495834,0.0198211669921875,-0.9792327880859375,0.00537109375
2015-04-16 19:54:06.696,514,47194.25022291667,0.017913818359375,-0.976409912109375,0.00634765625
2015-04-16 19:54:06.697,515,47194.25994433334,0.0227813720703125,-0.98968505859375,0.009307861328125
2015-04-16 19:54:06.697,516,47194.26966258333,0.0199432373046875,-0.9954071044921875,0.0054473876953125
2015-04-16 19:54:06.702,517,47194.279489875,0.02838134765625,-0.982940673828125,0.0062713623046875
2015-04-16 19:54:06.712,518,47194.289216625,0.0340118408203125,-0.975250244140625,0.0071563720703125
2015-04-16 19:54:06.721,519,47194.29892908334,0.024505615234375,-0.9725189208984375,0.0052947998046875
2015-04-16 19:54:06.732,520,47194.30866645834,0.0292510986328125,-0.983856201171875,0.000396728515625
2015-04-16 19:54:06.741,521,47194.31837279167,0.026397705078125,-0.9791412353515625,0.001373291015625
2015-04-16 19:54:06.750,522,47194.32797291667,0.0225830078125,-0.9801177978515625,-0.0005340576171875
2015-04-16 19:54:06.769,523,47194.33769575,0.02069091796875,-0.9848785400390625,-0.004425048828125
2015-04-16 19:54:06.795,524,47194.34741029167,0.026397705078125,-0.98388671875,-0.00054931640625
2015-04-16 19:54:06.796,525,47194.357132625,0.025390625,-0.976287841796875,-0.0015716552734375
2015-04-16 19:54:06.797,526,47194.366850625,0.0405731201171875,-0.98468017578125,-0.002655029296875
2015-04-16 19:54:06.800,527,47194.37656841667,0.03302001953125,-0.981903076171875,0.0003509521484375
2015-04-16 19:54:06.810,528,47194.386355625,0.0170135498046875,-0.9878082275390625,0.00445556640625
2015-04-16 19:54:06.818,529,47194.39600433334,0.02166748046875,-0.9792022705078125,0.0014190673828125
2015-04-16 19:54:06.828,530,47194.40583312501,0.0255126953125,-0.983917236328125,0.004364013671875
2015-04-16 19:54:06.838,531,47194.41555858334,0.0302581787109375,-0.981964111328125,0.006256103515625
2015-04-16 19:54:06.848,532,47194.42530479167,0.0406951904296875,-0.9818572998046875,0.00811767578125
2015-04-16 19:54:06.870,533,47194.43499329167,0.0444488525390625,-0.980865478515625,0.0051422119140625
2015-04-16 19:54:06.896,534,47194.44460079167,0.0368804931640625,-0.9828338623046875,0.005218505859375
2015-04-16 19:54:06.896,535,47194.454322625,0.0302734375,-0.98101806640625,0.007232666015625
2015-04-16 19:54:06.897,536,47194.46404354167,0.0245361328125,-0.9810791015625,0.003387451171875
2015-04-16 19:54:06.898,537,47194.47376220833,0.034027099609375,-0.9838104248046875,0.0042724609375
2015-04-16 19:54:06.906,538,47194.48347975,0.039703369140625,-0.9856414794921875,0.0032501220703125
2015-04-16 19:54:06.915,539,47194.49319916667,0.0500640869140625,-0.9788665771484375,0.0011444091796875
2015-04-16 19:54:06.925,540,47194.50303879167,0.046295166015625,-0.9798583984375,0.0031585693359375
2015-04-16 19:54:06.935,541,47194.51276075,0.045379638671875,-0.9760894775390625,0.006072998046875
2015-04-16 19:54:06.946,542,47194.522471,0.0415802001953125,-0.9780426025390625,0.006134033203125
2015-04-16 19:54:06.955,543,47194.5321935,0.036895751953125,-0.9847412109375,0.0052337646484375
2015-04-16 19:54:06.996,544,47194.54179633334,0.051025390625,-0.985504150390625,-0.0007781982421875
2015-04-16 19:54:06.996,545,47194.55152170834,0.056671142578125,-0.9759368896484375,0.001068115234375
2015-04-16 19:54:06.997,546,47194.56124216667,0.0537872314453125,-0.973114013671875,0.0001068115234375
2015-04-16 19:54:06.997,547,47194.57096179167,0.0548095703125,-0.9759674072265625,0.0040283203125
2015-04-16 19:54:07.003,548,47194.580685,0.05859375,-0.9797210693359375,0.0030364990234375
2015-04-16 19:54:07.016,549,47194.59050804167,0.0597076416015625,-0.9873504638671875,0.0109100341796875
2015-04-16 19:54:07.023,550,47194.600229125,0.0567169189453125,-0.9816436767578125,0.0030670166015625
2015-04-16 19:54:07.032,551,47194.60984629167,0.052001953125,-0.9826507568359375,0.00311279296875
2015-04-16 19:54:07.043,552,47194.6195605,0.0605010986328125,-0.9806671142578125,0.0020599365234375
2015-04-16 19:54:07.054,553,47194.631331625,0.059600830078125,-0.9835357666015625,0.0050048828125
2015-04-16 19:54:07.099,554,47194.640938875,0.0623779296875,-0.97967529296875,0.00299072265625
2015-04-16 19:54:07.100,555,47194.65065866667,0.064300537109375,-0.9758758544921875,0.005889892578125
2015-04-16 19:54:07.103,556,47194.660379125,0.063323974609375,-0.976806640625,0.0039520263671875
2015-04-16 19:54:07.103,557,47194.67010383333,0.0624237060546875,-0.981597900390625,0.0049591064453125
2015-04-16 19:54:07.104,558,47194.67982120834,0.0586700439453125,-0.985443115234375,0.0050201416015625
2015-04-16 19:54:07.113,559,47194.6896845,0.063323974609375,-0.9777679443359375,0.00396728515625
2015-04-16 19:54:07.122,560,47194.69936766667,0.053009033203125,-0.9864654541015625,0.0050811767578125
2015-04-16 19:54:07.131,561,47194.70897937501,0.055755615234375,-0.9825897216796875,0.0001373291015625
2015-04-16 19:54:07.141,562,47194.718805625,0.056671142578125,-0.9759368896484375,0.001068115234375
2015-04-16 19:54:07.151,563,47194.72841725,0.0557098388671875,-0.978790283203125,-0.0008544921875
2015-04-16 19:54:07.197,564,47194.7381385,0.0586090087890625,-0.9835357666015625,0.0010986328125
2015-04-16 19:54:07.198,565,47194.74785529167,0.0556488037109375,-0.9749603271484375,-0.003814697265625
2015-04-16 19:54:07.199,566,47194.75757637501,0.0576324462890625,-0.9863739013671875,-0.0037841796875
2015-04-16 19:54:07.201,567,47194.76729358334,0.0518646240234375,-0.9750213623046875,-0.0028076171875
2015-04-16 19:54:07.202,568,47194.77701379167,0.0481414794921875,-0.977935791015625,0.00018310546875
2015-04-16 19:54:07.210,569,47194.78684362501,0.0518951416015625,-0.975982666015625,-0.0018310546875
2015-04-16 19:54:07.219,570,47194.79657554167,0.049224853515625,-0.99029541015625,0.0031890869140625
2015-04-16 19:54:07.229,571,47194.80617275,0.0577392578125,-0.98736572265625,0.005035400390625
2015-04-16 19:54:07.239,572,47194.81589441667,0.0481719970703125,-0.97698974609375,0.00311279296875
2015-04-16 19:54:07.250,573,47194.827557,0.046295166015625,-0.9798583984375,0.0021820068359375
2015-04-16 19:54:07.296,574,47194.83727808334,0.0538787841796875,-0.97314453125,0.0069580078125
2015-04-16 19:54:07.297,575,47194.84699387501,0.051116943359375,-0.9807891845703125,0.008026123046875
2015-04-16 19:54:07.298,576,47194.85671320833,0.0482177734375,-0.9836578369140625,0.0031585693359375
2015-04-16 19:54:07.298,577,47194.86643654167,0.0547943115234375,-0.981658935546875,0.0001373291015625
2015-04-16 19:54:07.300,578,47194.87615304167,0.047271728515625,-0.983673095703125,0.002197265625
2015-04-16 19:54:07.309,579,47194.88598595834,0.0396728515625,-0.981842041015625,0.00225830078125
2015-04-16 19:54:07.319,580,47194.89559741667,0.04248046875,-0.9789581298828125,0.001220703125
2015-04-16 19:54:07.328,581,47194.90531079167,0.0491790771484375,-0.984588623046875,0.0031585693359375
2015-04-16 19:54:07.338,582,47194.915139625,0.05487060546875,-0.9883270263671875,0.0011444091796875
2015-04-16 19:54:07.348,583,47194.92486066667,0.04815673828125,-0.9788818359375,0.00018310546875
2015-04-16 19:54:07.370,584,47194.93447179167,0.0462188720703125,-0.9750823974609375,-0.0007781982421875
2015-04-16 19:54:07.394,585,47194.94418862501,0.0377349853515625,-0.976165771484375,0.001251220703125
2015-04-16 19:54:07.395,586,47194.953907875,0.0453948974609375,-0.9836883544921875,0.0041656494140625
2015-04-16 19:54:07.396,587,47194.96362825,0.0377349853515625,-0.984710693359375,-0.00262451171875
2015-04-16 19:54:07.397,588,47194.97334845833,0.04150390625,-0.974212646484375,0.001220703125
2015-04-16 19:54:07.406,589,47194.98306779167,0.0416107177734375,-0.98468017578125,0.00421142578125
2015-04-16 19:54:07.416,590,47194.99278854167,0.0540313720703125,-0.990264892578125,0.0080413818359375
2015-04-16 19:54:07.426,591,47195.00250495833,0.0577239990234375,-0.9873504638671875,0.004058837890625
2015-04-16 19:54:07.435,592,47195.01222366667,0.0463409423828125,-0.9789276123046875,0.0060882568359375
2015-04-16 19:54:07.445,593,47195.02204458333,0.0446624755859375,-1.002761840820312,0.0091705322265625
2015-04-16 19:54:07.454,594,47195.031772625,0.0367431640625,-0.973297119140625,0.000274658203125
2015-04-16 19:54:07.495,595,47195.04137954167,0.0245819091796875,-0.97918701171875,0.0072784423828125
2015-04-16 19:54:07.496,596,47195.05109854167,0.01678466796875,-0.9687652587890625,-0.00250244140625
2015-04-16 19:54:07.496,597,47195.06086183334,0.0416717529296875,-0.998931884765625,0.0003509521484375
2015-04-16 19:54:07.497,598,47195.07054041667,0.0450439453125,-0.957000732421875,-0.00775146484375
2015-04-16 19:54:07.503,599,47195.08026529167,0.04241943359375,-0.9855804443359375,-0.0066070556640625
2015-04-16 19:54:07.513,600,47195.089978,0.0357666015625,-0.9742584228515625,-0.002655029296875
2015-04-16 19:54:07.524,601,47195.09980554167,0.046356201171875,-0.9884185791015625,0.0012359619140625
2015-04-16 19:54:07.532,602,47195.10941754167,0.0330352783203125,-0.97906494140625,0.0023040771484375
2015-04-16 19:54:07.541,603,47195.11914091667,0.034027099609375,-0.980010986328125,0.006195068359375
2015-04-16 19:54:07.552,604,47195.12885466667,0.04052734375,-0.97137451171875,0.0012054443359375
2015-04-16 19:54:07.571,605,47195.13857037501,0.058624267578125,-0.98162841796875,0.0040283203125
2015-04-16 19:54:07.596,606,47195.14828979167,0.0614776611328125,-0.9844512939453125,0.0030364990234375
2015-04-16 19:54:07.597,607,47195.15800829167,0.0483245849609375,-0.9874725341796875,0.0080718994140625
2015-04-16 19:54:07.598,608,47195.16772725,0.03021240234375,-0.9810028076171875,0.003326416015625
2015-04-16 19:54:07.599,609,47195.177448625,0.018951416015625,-0.9849700927734375,0.0093231201171875
2015-04-16 19:54:07.609,610,47195.18716791667,0.0283050537109375,-0.9734344482421875,0.0062255859375
2015-04-16 19:54:07.620,611,47195.197007625,0.0303497314453125,-0.9895782470703125,0.0082550048828125
2015-04-16 19:54:07.631,612,47195.20863095834,0.036102294921875,-0.9895477294921875,0.0140838623046875
2015-04-16 19:54:07.641,613,47195.21831358333,0.0444488525390625,-0.9799041748046875,0.006103515625
2015-04-16 19:54:07.651,614,47195.22799816667,0.0425262451171875,-0.97802734375,0.0061187744140625
2015-04-16 19:54:07.670,615,47195.23770683334,0.0216827392578125,-0.98394775390625,0.0004730224609375
2015-04-16 19:54:07.696,616,47195.247422375,0.0272979736328125,-0.9752960205078125,0.0003814697265625
2015-04-16 19:54:07.697,617,47195.25714,0.0367279052734375,-0.9761505126953125,-0.002655029296875
2015-04-16 19:54:07.698,618,47195.26686166667,0.0113067626953125,-0.993560791015625,-0.0013427734375
2015-04-16 19:54:07.699,619,47195.276585125,0.028228759765625,-0.9791107177734375,-0.0025634765625
2015-04-16 19:54:07.709,620,47195.28640925,0.056640625,-0.9749603271484375,9.1552734375e-05
2015-04-16 19:54:07.718,621,47195.29609445834,0.0548248291015625,-0.9816741943359375,0.002105712890625
2015-04-16 19:54:07.728,622,47195.30585075,0.03302001953125,-0.9838104248046875,-0.0006103515625
2015-04-16 19:54:07.738,623,47195.31558045834,0.0416107177734375,-0.9865875244140625,0.0022735595703125
2015-04-16 19:54:07.750,624,47195.32712508333,0.0359649658203125,-0.9819183349609375,0.0091400146484375
2015-04-16 19:54:07.771,625,47195.33684566667,0.0283050537109375,-0.971527099609375,0.0072021484375
2015-04-16 19:54:07.796,626,47195.34656270834,0.037811279296875,-0.979034423828125,0.00616455078125
2015-04-16 19:54:07.796,627,47195.35628562501,0.0510711669921875,-0.9845733642578125,0.002166748046875
2015-04-16 19:54:07.797,628,47195.36600341667,0.0539398193359375,-0.97979736328125,0.0079803466796875
2015-04-16 19:54:07.798,629,47195.37572429167,0.0264892578125,-0.985809326171875,0.0053253173828125
2015-04-16 19:54:07.808,630,47195.38558354167,0.034027099609375,-0.98284912109375,0.0042572021484375
2015-04-16 19:54:07.818,631,47195.39517179167,0.039581298828125,-0.97515869140625,-0.0007171630859375
2015-04-16 19:54:07.828,632,47195.40499591667,0.0377349853515625,-0.97711181640625,0.001251220703125
2015-04-16 19:54:07.837,633,47195.414609,0.0330657958984375,-0.9828643798828125,0.0032958984375
2015-04-16 19:54:07.848,634,47195.42432741667,0.0567474365234375,-0.985443115234375,0.003082275390625
2015-04-16 19:54:07.869,635,47195.434152375,0.0519561767578125,-0.9769439697265625,0.003082275390625
2015-04-16 19:54:07.893,636,47195.44380016667,0.0387420654296875,-0.9818572998046875,0.00421142578125
2015-04-16 19:54:07.894,637,47195.453490875,0.0245208740234375,-0.98486328125,-0.000518798828125
2015-04-16 19:54:07.894,638,47195.46323066667,0.0319671630859375,-0.9714508056640625,-0.00164794921875
2015-04-16 19:54:07.895,639,47195.47292429167,0.034912109375,-0.9818878173828125,0.000335693359375
2015-04-16 19:54:07.905,640,47195.48277333334,0.0368194580078125,-0.9799652099609375,0.0022735595703125
2015-04-16 19:54:07.915,641,47195.49236375,0.04241943359375,-0.971343994140625,0.001190185546875
2015-04-16 19:54:07.925,642,47195.50208541667,0.041534423828125,-0.9770660400390625,0.0022125244140625
2015-04-16 19:54:07.934,643,47195.51181316667,0.0282745361328125,-0.981964111328125,-0.000579833984375
2015-04-16 19:54:07.944,644,47195.521530375,0.02069091796875,-0.9772796630859375,0.0004425048828125
2015-04-16 19:54:07.954,645,47195.53135229167,0.0301055908203125,-0.969573974609375,0.0012969970703125
2015-04-16 19:54:07.969,646,47195.54096216667,0.033111572265625,-0.982879638671875,0.0062255859375
2015-04-16 19:54:07.997,647,47195.55068304167,0.0283050537109375,-0.9857635498046875,-0.0005645751953125
2015-04-16 19:54:07.998,648,47195.56040004167,0.03778076171875,-0.982818603515625,0.00128173828125
2015-04-16 19:54:07.999,649,47195.57206516667,0.0198822021484375,-0.98779296875,0.0054168701171875
2015-04-16 19:54:08.004,650,47195.58178720834,0.011260986328125,-0.9812164306640625,0.0015411376953125
2015-04-16 19:54:08.015,651,47195.59150429167,0.020721435546875,-0.9782562255859375,0.0034027099609375
2015-04-16 19:54:08.024,652,47195.60132945834,0.030303955078125,-0.9848175048828125,0.0072479248046875
2015-04-16 19:54:08.033,653,47195.61094075,0.022705078125,-0.9868011474609375,0.0044097900390625
2015-04-16 19:54:08.043,654,47195.62077275,0.0330352783203125,-0.98284912109375,0.0003509521484375
2015-04-16 19:54:08.053,655,47195.63049054167,0.0245208740234375,-0.9801177978515625,0.0023956298828125
2015-04-16 19:54:08.071,656,47195.64010012501,0.019805908203125,-0.9811248779296875,0.0034332275390625
2015-04-16 19:54:08.103,657,47195.64981725,0.0197601318359375,-0.978271484375,0.0014495849609375
2015-04-16 19:54:08.104,658,47195.65953733333,0.019805908203125,-0.98681640625,-0.000457763671875
2015-04-16 19:54:08.104,659,47195.67120295834,0.031158447265625,-0.97149658203125,0.0081634521484375
2015-04-16 19:54:08.105,660,47195.68092141667,0.0387420654296875,-0.9818572998046875,0.00421142578125
2015-04-16 19:54:08.114,661,47195.69076641667,0.0284576416015625,-0.9990997314453125,0.00244140625
2015-04-16 19:54:08.123,662,47195.70036925,0.0294342041015625,-0.9933929443359375,0.0082855224609375
2015-04-16 19:54:08.134,663,47195.71007979167,0.038726806640625,-0.9742584228515625,0.006134033203125
2015-04-16 19:54:08.144,664,47195.721851625,0.042449951171875,-0.979888916015625,-0.000732421875
2015-04-16 19:54:08.154,665,47195.73146245834,0.051055908203125,-0.9760284423828125,0.0060272216796875
2015-04-16 19:54:08.170,666,47195.74118383334,0.035003662109375,-0.98382568359375,0.0062255859375
2015-04-16 19:54:08.197,667,47195.750899125,0.0332183837890625,-0.99334716796875,0.0082550048828125
2015-04-16 19:54:08.198,668,47195.760617125,0.03033447265625,-0.9943389892578125,0.005340576171875
2015-04-16 19:54:08.198,669,47195.77034275,0.037811279296875,-0.9809417724609375,0.0052032470703125
2015-04-16 19:54:08.203,670,47195.780076125,0.05401611328125,-0.9788818359375,0.0138702392578125
2015-04-16 19:54:08.213,671,47195.789777625,0.0425872802734375,-0.9723358154296875,0.012969970703125
2015-04-16 19:54:08.222,672,47195.799607,0.0397796630859375,-0.9866180419921875,0.007171630859375
2015-04-16 19:54:08.232,673,47195.80921629167,0.0360260009765625,-0.9885711669921875,0.0091705322265625
2015-04-16 19:54:08.241,674,47195.81897083334,0.0368194580078125,-0.9866180419921875,-0.001617431640625
2015-04-16 19:54:08.251,675,47195.82870716667,0.042388916015625,-0.9627838134765625,0.00408935546875
2015-04-16 19:54:08.272,676,47195.83837725,0.0358123779296875,-0.965728759765625,0.0061187744140625
2015-04-16 19:54:08.298,677,47195.84809429167,0.0388031005859375,-0.9913787841796875,0.0032806396484375
2015-04-16 19:54:08.299,678,47195.85781270834,0.047393798828125,-0.9903411865234375,0.007110595703125
2015-04-16 19:54:08.299,679,47195.86753491667,0.0331573486328125,-0.9857330322265625,0.008209228515625
2015-04-16 19:54:08.302,680,47195.87725475,0.0291900634765625,-0.970550537109375,0.003265380859375
2015-04-16 19:54:08.310,681,47195.88708362501,0.0396728515625,-0.9799346923828125,0.0041961669921875
2015-04-16 19:54:08.319,682,47195.89670012501,0.046234130859375,-0.9703521728515625,0.00311279296875
2015-04-16 19:54:08.331,683,47195.90654625,0.038909912109375,-0.9942626953125,0.010162353515625
2015-04-16 19:54:08.339,684,47195.91624141667,0.00933837890625,-0.981231689453125,-0.000396728515625
2015-04-16 19:54:08.348,685,47195.92585454167,-0.094757080078125,-0.9482574462890625,0.02203369140625
2015-04-16 19:54:08.369,686,47195.93573416667,0.077301025390625,-0.9996795654296875,0.0461578369140625
2015-04-16 19:54:08.394,687,47195.94528983333,0.12713623046875,-1.023681640625,0.005523681640625
2015-04-16 19:54:08.395,688,47195.95501200001,-0.0610504150390625,-0.938232421875,-0.00286865234375
2015-04-16 19:54:08.395,689,47195.96473133333,-0.0081939697265625,-0.932861328125,-0.0112762451171875
2015-04-16 19:54:08.397,690,47195.97445254167,0.1305999755859375,-0.9960174560546875,-0.0034637451171875
2015-04-16 19:54:08.407,691,47195.98428033334,0.022064208984375,-1.015396118164062,0.01141357421875
2015-04-16 19:54:08.417,692,47195.99396366667,-0.0018157958984375,-0.9804534912109375,0.015380859375
2015-04-16 19:54:08.426,693,47196.00372033333,0.0255584716796875,-0.97064208984375,0.01409912109375
2015-04-16 19:54:08.436,694,47196.01333954167,0.07733154296875,-0.9595184326171875,-0.0021514892578125
2015-04-16 19:54:08.447,695,47196.02499370834,0.0877532958984375,-0.9631805419921875,-0.0041961669921875
2015-04-16 19:54:08.470,696,47196.03483795834,0.0886993408203125,-0.98785400390625,-0.0178375244140625
2015-04-16 19:54:08.495,697,47196.04443133334,-0.010284423828125,-1.02520751953125,-0.005889892578125
2015-04-16 19:54:08.496,698,47196.054152,0.00799560546875,-0.9459991455078125,-0.0113677978515625
2015-04-16 19:54:08.497,699,47196.063869875,0.0752716064453125,-1.005355834960938,0.032470703125
2015-04-16 19:54:08.498,700,47196.07358625,0.050537109375,-1.064453125,-0.0111846923828125
2015-04-16 19:54:08.506,701,47196.083337375,0.0172882080078125,-0.832275390625,-0.1072998046875
2015-04-16 19:54:08.516,702,47196.09302220833,-0.048248291015625,-0.963226318359375,0.094329833984375
2015-04-16 19:54:08.525,703,47196.10274375,0.1218719482421875,-1.092514038085938,0.0717315673828125
2015-04-16 19:54:08.535,704,47196.11260158334,0.17041015625,-1.685653686523438,0.04473876953125
2015-04-16 19:54:08.544,705,47196.12218141667,0.0687408447265625,-1.395660400390625,-0.1855316162109375
2015-04-16 19:54:08.555,706,47196.13200916667,-0.096893310546875,0.6457672119140625,-1.220474243164062
2015-04-16 19:54:08.595,707,47196.141619625,0.213775634765625,-1.013641357421875,0.12054443359375
2015-04-16 19:54:08.595,708,47196.15140337501,0.1024017333984375,-1.270477294921875,0.738739013671875
2015-04-16 19:54:08.596,709,47196.16105766667,0.1288909912109375,-1.550613403320312,0.4294891357421875
2015-04-16 19:54:08.597,710,47196.170779,0.0275421142578125,-0.887451171875,-0.077667236328125
2015-04-16 19:54:08.603,711,47196.18049895834,0.15185546875,-1.568984985351562,-0.1520843505859375
2015-04-16 19:54:08.613,712,47196.19022025001,-0.3804931640625,-1.068344116210938,-0.0305938720703125
2015-04-16 19:54:08.623,713,47196.20004787501,0.932952880859375,-1.851760864257812,-0.024658203125
2015-04-16 19:54:08.632,714,47196.20966070834,-0.555084228515625,-1.519210815429688,-0.097381591796875
2015-04-16 19:54:08.642,715,47196.219484375,0.376800537109375,-1.61968994140625,0.081695556640625
2015-04-16 19:54:08.652,716,47196.22910041667,-0.214874267578125,-1.5438232421875,0.132232666015625
2015-04-16 19:54:08.696,717,47196.23882070833,-0.0356597900390625,-1.097991943359375,0.040863037109375
2015-04-16 19:54:08.697,718,47196.24853854167,0.345428466796875,-1.056182861328125,-0.0464935302734375
2015-04-16 19:54:08.698,719,47196.25825750001,-0.4195404052734375,-1.101287841796875,0.0063018798828125
2015-04-16 19:54:08.699,720,47196.26798125001,0.209564208984375,-1.219284057617188,-0.103302001953125
2015-04-16 19:54:08.700,721,47196.27770116667,-0.2551727294921875,-0.5763092041015625,-0.1638946533203125
2015-04-16 19:54:08.710,722,47196.2875265,0.1593475341796875,-1.7861328125,0.158294677734375
2015-04-16 19:54:08.720,723,47196.29725916667,-0.0974273681640625,-1.0986328125,0.0237884521484375
2015-04-16 19:54:08.730,724,47196.30696504167,0.0374603271484375,-1.466171264648438,-0.005157470703125
2015-04-16 19:54:08.740,725,47196.316686625,-0.0825958251953125,-1.009780883789062,-0.02490234375
2015-04-16 19:54:08.749,726,47196.32629445833,0.022552490234375,-1.227523803710938,0.001678466796875
2015-04-16 19:54:08.768,727,47196.33601629167,0.1393585205078125,-0.873870849609375,-0.0630950927734375
2015-04-16 19:54:08.794,728,47196.34573320833,0.1593780517578125,-1.18408203125,-0.0096893310546875
2015-04-16 19:54:08.794,729,47196.35545520834,0.11846923828125,-1.162628173828125,-0.012359619140625
2015-04-16 19:54:08.795,730,47196.36517470833,-0.131011962890625,-1.314971923828125,0.01043701171875
2015-04-16 19:54:08.797,731,47196.37489279167,0.126434326171875,-1.285430908203125,0.0205841064453125
2015-04-16 19:54:08.807,732,47196.38466125001,0.066986083984375,-1.296630859375,0.031036376953125
2015-04-16 19:54:08.817,733,47196.394337875,0.134002685546875,-1.176834106445312,0.010162353515625
2015-04-16 19:54:08.827,734,47196.40416016667,0.1084747314453125,-1.076202392578125,-0.00286865234375
2015-04-16 19:54:08.837,735,47196.41389170833,0.0170135498046875,-1.1229248046875,0.0002288818359375
2015-04-16 19:54:08.846,736,47196.42360291667,0.122222900390625,-1.137893676757812,-0.0007171630859375
2015-04-16 19:54:08.869,737,47196.43331483334,0.0894622802734375,-1.1754150390625,0.0076141357421875
2015-04-16 19:54:08.895,738,47196.44292520834,0.121978759765625,-1.186538696289062,0.026031494140625
2015-04-16 19:54:08.896,739,47196.45264708334,0.093597412109375,-1.196365356445312,0.022430419921875
2015-04-16 19:54:08.896,740,47196.46236383334,0.099517822265625,-1.113479614257812,0.01409912109375
2015-04-16 19:54:08.897,741,47196.47208754167,0.0667877197265625,-1.06146240234375,0.0043487548828125
2015-04-16 19:54:08.905,742,47196.48192391667,0.0804595947265625,-0.99468994140625,-4.57763671875e-05
2015-04-16 19:54:08.914,743,47196.49152295833,0.067352294921875,-1.015777587890625,-0.00079345703125
2015-04-16 19:54:08.924,744,47196.50124233334,0.077117919921875,-1.038543701171875,0.010009765625
2015-04-16 19:54:08.933,745,47196.51095745833,0.07183837890625,-1.079559326171875,0.0171356201171875
2015-04-16 19:54:08.943,746,47196.52078775,0.0853424072265625,-1.108901977539062,0.020111083984375
2015-04-16 19:54:08.954,747,47196.5305085,0.0571746826171875,-1.143478393554688,0.018585205078125
2015-04-16 19:54:08.971,748,47196.54011912501,0.0417327880859375,-1.111297607421875,0.0156097412109375
2015-04-16 19:54:08.999,749,47196.55177991667,0.0466766357421875,-1.12744140625,0.0215606689453125
2015-04-16 19:54:08.999,750,47196.56150370833,0.0458831787109375,-1.1417236328125,0.0245819091796875
2015-04-16 19:54:09.000,751,47196.57121991667,0.0370025634765625,-1.114181518554688,0.012725830078125
2015-04-16 19:54:09.004,752,47196.58106683334,0.033203125,-1.0999755859375,0.01959228515625
2015-04-16 19:54:09.016,753,47196.59260404167,0.0553131103515625,-1.13970947265625,0.02349853515625
2015-04-16 19:54:09.025,754,47196.6024335,0.057220458984375,-1.13873291015625,0.0244598388671875
2015-04-16 19:54:09.036,755,47196.61205045834,0.0461883544921875,-1.188339233398438,0.0208740234375
2015-04-16 19:54:09.044,756,47196.62186908333,0.0303802490234375,-1.218048095703125,0.0280609130859375
2015-04-16 19:54:09.054,757,47196.63147875,0.037200927734375,-1.244613647460938,0.0281219482421875
2015-04-16 19:54:09.074,758,47196.641194875,0.021148681640625,-1.23626708984375,0.0360870361328125
2015-04-16 19:54:09.103,759,47196.650912625,0.0443878173828125,-1.194091796875,0.0268096923828125
2015-04-16 19:54:09.103,760,47196.66063091667,0.030059814453125,-1.1685791015625,0.03076171875
2015-04-16 19:54:09.104,761,47196.670348,0.0215301513671875,-1.175323486328125,0.025970458984375
2015-04-16 19:54:09.104,762,47196.68006883334,0.0214691162109375,-1.175308227539062,0.0220489501953125
2015-04-16 19:54:09.113,763,47196.68989537501,-0.0037078857421875,-1.215576171875,0.02838134765625
2015-04-16 19:54:09.121,764,47196.69950404167,-0.0126953125,-1.172821044921875,0.015472412109375
2015-04-16 19:54:09.131,765,47196.70922195834,0.0012359619140625,-1.1412353515625,0.012237548828125
2015-04-16 19:54:09.144,766,47196.72099458334,-0.0275421142578125,-1.206298828125,0.0207061767578125
2015-04-16 19:54:09.152,767,47196.73060470833,-0.01129150390625,-1.114730834960938,0.0112457275390625
2015-04-16 19:54:09.171,768,47196.74031916667,-0.0225677490234375,-1.146224975585938,-0.000274658203125
2015-04-16 19:54:09.196,769,47196.75003800001,-0.0655670166015625,-1.199081420898438,0.0121917724609375
2015-04-16 19:54:09.196,770,47196.7597595,-0.09228515625,-1.056625366210938,0.0048675537109375
2015-04-16 19:54:09.197,771,47196.769478125,-0.07476806640625,-0.9955291748046875,0.0044097900390625
2015-04-16 19:54:09.202,772,47196.779194625,-0.0443572998046875,-0.8895416259765625,-0.0013275146484375
2015-04-16 19:54:09.212,773,47196.78902691667,0.0165557861328125,-0.8202972412109375,-0.009124755859375
2015-04-16 19:54:09.222,774,47196.79876020834,-0.5195770263671875,-0.9721527099609375,0.0331268310546875
2015-04-16 19:54:09.231,775,47196.8084555,-1.7882080078125,-0.697418212890625,0.0557861328125
2015-04-16 19:54:09.241,776,47196.81807654167,-2.597320556640625,-0.6126708984375,0.3598175048828125
2015-04-16 19:54:09.250,777,47196.82778916667,3.911849975585938,-2.99798583984375,0.504241943359375
2015-04-16 19:54:09.283,778,47196.83751104167,7.755462646484375,0.282257080078125,0.9390411376953125
2015-04-16 19:54:09.312,779,47196.847230625,4.139801025390625,-0.0028076171875,-1.628448486328125
2015-04-16 19:54:09.313,780,47196.856948375,3.860122680664062,-2.825820922851562,0.851593017578125
2015-04-16 19:54:09.314,781,47196.866671875,-6.790130615234375,-2.623703002929688,2.807846069335938
2015-04-16 19:54:09.314,782,47196.87639166667,2.263397216796875,-1.969070434570312,2.424484252929688
2015-04-16 19:54:09.315,783,47196.88610829167,0.437713623046875,-1.305572509765625,-0.007843017578125
2015-04-16 19:54:09.319,784,47196.895822625,-1.699661254882812,-1.199691772460938,-0.9326171875
2015-04-16 19:54:09.327,785,47196.90554466667,-3.383575439453125,-1.645050048828125,-0.4839630126953125
2015-04-16 19:54:09.337,786,47196.91526366667,3.813186645507812,-3.423568725585938,0.7607269287109375
2015-04-16 19:54:09.347,787,47196.92498154167,-0.86834716796875,-1.32952880859375,-1.082427978515625
2015-04-16 19:54:09.370,788,47196.93482995834,0.415985107421875,-2.205947875976562,-0.7427825927734375
2015-04-16 19:54:09.398,789,47196.94445195833,-1.91400146484375,-1.218521118164062,-0.159423828125
2015-04-16 19:54:09.398,790,47196.95414416667,0.3525238037109375,-2.37841796875,0.3361663818359375
2015-04-16 19:54:09.399,791,47196.96386383333,0.398468017578125,-1.647979736328125,-0.163909912109375
2015-04-16 19:54:09.401,792,47196.97357925,0.5568695068359375,-1.198562622070312,-0.2530975341796875
2015-04-16 19:54:09.406,793,47196.98329841667,-0.5539093017578125,-1.387588500976562,0.0699005126953125
2015-04-16 19:54:09.416,794,47196.99301595834,-1.810409545898438,-0.087005615234375,-0.36541748046875
2015-04-16 19:54:09.425,795,47197.00284516667,-0.759124755859375,-0.636383056640625,-0.14300537109375
2015-04-16 19:54:09.435,796,47197.01246054167,0.9892578125,-1.906478881835938,0.495635986328125
2015-04-16 19:54:09.446,797,47197.02228391667,-1.173095703125,-0.8179168701171875,-0.1882171630859375
2015-04-16 19:54:09.455,798,47197.03189654167,-1.406295776367188,-0.46026611328125,0.143280029296875
2015-04-16 19:54:09.500,799,47197.04161379167,0.7158050537109375,-1.121719360351562,-0.2206573486328125
2015-04-16 19:54:09.500,800,47197.05133804167,-1.164016723632812,0.2100677490234375,0.0030517578125
2015-04-16 19:54:09.501,801,47197.061059,0.0416259765625,-0.405975341796875,-0.03204345703125
2015-04-16 19:54:09.501,802,47197.07077387501,-1.11175537109375,-0.7063446044921875,-0.066558837890625
2015-04-16 19:54:09.502,803,47197.08049433334,0.1532135009765625,-0.796630859375,0.1760406494140625
2015-04-16 19:54:09.518,804,47197.09021445834,-0.59735107421875,-0.2041168212890625,0.0202484130859375
2015-04-16 19:54:09.522,805,47197.099934375,-0.4282684326171875,-0.385223388671875,0.1059417724609375
2015-04-16 19:54:09.533,806,47197.109652125,-0.520172119140625,0.12457275390625,-0.34259033203125
2015-04-16 19:54:09.541,807,47197.11937441667,-0.7064208984375,0.088897705078125,-0.044952392578125
2015-04-16 19:54:09.551,808,47197.12910200001,-0.21636962890625,-0.248626708984375,0.096343994140625
2015-04-16 19:54:09.574,809,47197.138814625,0.0019683837890625,0.0358734130859375,0.00933837890625
2015-04-16 19:54:09.601,810,47197.14853766667,-0.6620025634765625,0.372467041015625,0.331329345703125
2015-04-16 19:54:09.601,811,47197.15825858334,-0.66888427734375,0.1203460693359375,0.536956787109375
2015-04-16 19:54:09.602,812,47197.16797966667,-0.270782470703125,0.085662841796875,0.10699462890625
2015-04-16 19:54:09.602,813,47197.177699,-0.31549072265625,0.0665283203125,0.00537109375
2015-04-16 19:54:09.611,814,47197.18742016667,-0.3061981201171875,-0.011810302734375,-0.126922607421875
2015-04-16 19:54:09.619,815,47197.19714241667,-0.372314453125,0.412628173828125,-0.090057373046875
2015-04-16 19:54:09.630,816,47197.20685754167,-0.1783599853515625,0.2940216064453125,-0.0972442626953125
2015-04-16 19:54:09.640,817,47197.216691,-0.9285125732421875,0.244232177734375,0.2235565185546875
2015-04-16 19:54:09.649,818,47197.22630366667,0.2615966796875,0.3662261962890625,-0.0055999755859375
2015-04-16 19:54:09.670,819,47197.2361295,0.7803192138671875,0.37408447265625,-0.013580322265625
2015-04-16 19:54:09.700,820,47197.24573895834,2.169265747070312,0.0523529052734375,0.16217041015625
2015-04-16 19:54:09.701,821,47197.25545954167,0.559112548828125,-0.004058837890625,0.165252685546875
2015-04-16 19:54:09.701,822,47197.26518370834,0.4311676025390625,-0.717681884765625,0.262359619140625
2015-04-16 19:54:09.701,823,47197.27490216667,-0.155731201171875,-0.321258544921875,0.35247802734375
2015-04-16 19:54:09.707,824,47197.28472970834,0.5005645751953125,-0.532867431640625,0.1684417724609375
2015-04-16 19:54:09.719,825,47197.29630220833,-0.9219512939453125,0.3613128662109375,-0.008880615234375
2015-04-16 19:54:09.732,826,47197.307951125,-0.9219512939453125,0.3613128662109375,-0.008880615234375
2015-04-16 19:54:09.740,827,47197.31767016667,1.17181396484375,-0.9509735107421875,0.5127105712890625
2015-04-16 19:54:09.750,828,47197.32739404167,0.271331787109375,-0.2088623046875,-0.6118011474609375
2015-04-16 19:54:09.796,829,47197.33711575,0.4583740234375,-0.4405059814453125,0.0328216552734375
2015-04-16 19:54:09.797,830,47197.34683641667,-0.2203216552734375,-0.067047119140625,-0.106842041015625
2015-04-16 19:54:09.798,831,47197.35655791667,-0.524139404296875,-0.1055908203125,0.1005706787109375
2015-04-16 19:54:09.798,832,47197.36627895834,0.6751861572265625,-0.236175537109375,0.002227783203125
2015-04-16 19:54:09.800,833,47197.37599591667,1.768585205078125,-1.19573974609375,-0.123382568359375
2015-04-16 19:54:09.809,834,47197.385826625,1.23675537109375,-1.027313232421875,0.512451171875
2015-04-16 19:54:09.819,835,47197.39544466667,1.112075805664062,-1.797866821289062,0.094146728515625
2015-04-16 19:54:09.828,836,47197.40515966667,1.030853271484375,-1.876113891601562,-0.0834197998046875
2015-04-16 19:54:09.840,837,47197.41682754167,0.4432525634765625,-1.507156372070312,0.4547271728515625
2015-04-16 19:54:09.849,838,47197.42654770834,0.5606231689453125,-1.736236572265625,0.2474822998046875
2015-04-16 19:54:09.897,839,47197.43626745834,0.26416015625,-0.6278228759765625,-0.0831756591796875
2015-04-16 19:54:09.897,840,47197.44598866667,0.72930908203125,-0.91912841796875,-0.1579437255859375
2015-04-16 19:54:09.898,841,47197.45570966667,0.0653839111328125,-0.523101806640625,0.054718017578125
2015-04-16 19:54:09.899,842,47197.46542929167,0.64984130859375,-0.2562713623046875,-0.2891387939453125
2015-04-16 19:54:09.900,843,47197.47515233334,0.5793304443359375,-0.9517364501953125,-0.2790985107421875
2015-04-16 19:54:09.908,844,47197.48498675,0.44195556640625,-0.5532684326171875,-0.1314544677734375
2015-04-16 19:54:09.917,845,47197.49460604167,0.7204132080078125,-1.31866455078125,0.0258026123046875
2015-04-16 19:54:09.927,846,47197.5043165,0.4072723388671875,-0.9176177978515625,-0.017333984375
2015-04-16 19:54:09.937,847,47197.51409820834,1.054611206054688,-1.30316162109375,-0.04229736328125
2015-04-16 19:54:09.947,848,47197.52386683333,0.6638946533203125,-0.8242340087890625,-0.035980224609375
2015-04-16 19:54:09.998,849,47197.53358766667,1.170989990234375,-1.677261352539062,0.3257598876953125
2015-04-16 19:54:09.999,850,47197.54322975,1.339187622070312,-1.753524780273438,-0.112548828125
2015-04-16 19:54:10.000,851,47197.55296475,1.218093872070312,-1.22650146484375,0.0510101318359375
2015-04-16 19:54:10.001,852,47197.56264579167,1.450088500976562,-1.511825561523438,-0.0391998291015625
2015-04-16 19:54:10.001,853,47197.57236633333,1.463790893554688,-1.373855590820312,0.0022125244140625
2015-04-16 19:54:10.002,854,47197.58208895833,1.012893676757812,-1.164718627929688,-0.039642333984375
2015-04-16 19:54:10.010,855,47197.59181658334,1.419906616210938,-1.10308837890625,-0.015380859375
2015-04-16 19:54:10.021,856,47197.60153266667,0.7443084716796875,-1.248199462890625,0.08416748046875
2015-04-16 19:54:10.031,857,47197.611264375,0.7245330810546875,-0.2328033447265625,0.011566162109375
2015-04-16 19:54:10.039,858,47197.620974375,1.196823120117188,-1.103164672851562,0.086944580078125
2015-04-16 19:54:10.050,859,47197.63069783334,0.5218658447265625,-0.920135498046875,-0.0174407958984375
2015-04-16 19:54:10.071,860,47197.64041333333,0.585662841796875,-0.8736572265625,-0.036956787109375
2015-04-16 19:54:10.100,861,47197.65013170834,0.57879638671875,-0.983428955078125,0.029449462890625
2015-04-16 19:54:10.102,862,47197.6598545,0.5334014892578125,-0.409423828125,-0.153656005859375
2015-04-16 19:54:10.103,863,47197.66957458333,0.576263427734375,-0.903228759765625,-0.048492431640625
2015-04-16 19:54:10.104,864,47197.679294,0.5637969970703125,-0.9368133544921875,-0.0059661865234375
2015-04-16 19:54:10.108,865,47197.68901437501,0.9005279541015625,-1.224288940429688,0.0226287841796875
2015-04-16 19:54:10.117,866,47197.69873675,0.6367950439453125,-0.7351226806640625,-0.0302886962890625
2015-04-16 19:54:10.129,867,47197.70856654167,0.9595947265625,-0.6725616455078125,-0.0003204345703125
2015-04-16 19:54:10.137,868,47197.71825345833,0.930908203125,-0.81646728515625,-0.0317230224609375
2015-04-16 19:54:10.147,869,47197.72795450001,0.8476104736328125,-0.78607177734375,-0.0124053955078125
2015-04-16 19:54:10.170,870,47197.73770245833,0.9485931396484375,-0.6288299560546875,-0.0210418701171875
2015-04-16 19:54:10.197,871,47197.74733654167,0.9396820068359375,-0.6212158203125,-0.048492431640625
2015-04-16 19:54:10.199,872,47197.75710416667,0.8581390380859375,-0.6641845703125,-0.006256103515625
2015-04-16 19:54:10.201,873,47197.76677441667,0.7722930908203125,-0.6146392822265625,-0.0262908935546875
2015-04-16 19:54:10.201,874,47197.77649491667,0.5646820068359375,-0.5590057373046875,-0.0147247314453125
2015-04-16 19:54:10.208,875,47197.7862555,0.5377044677734375,-0.511688232421875,-0.0245361328125
2015-04-16 19:54:10.216,876,47197.79593720834,0.4701995849609375,-0.5544586181640625,0.0038299560546875
2015-04-16 19:54:10.227,877,47197.8057635,0.49163818359375,-0.511383056640625,0.002410888671875
2015-04-16 19:54:10.238,878,47197.81539916667,0.480438232421875,-0.5400390625,-0.0012664794921875
2015-04-16 19:54:10.249,879,47197.82516658334,0.495330810546875,-0.5141448974609375,-0.0074005126953125
2015-04-16 19:54:10.269,880,47197.83481720834,0.3729400634765625,-0.4784393310546875,-0.00640869140625
2015-04-16 19:54:10.295,881,47197.84647645833,0.3228302001953125,-0.342987060546875,0.0041961669921875
2015-04-16 19:54:10.296,882,47197.856196,0.3367767333984375,-0.316162109375,0
2015-04-16 19:54:10.297,883,47197.865914375,0.3252105712890625,-0.2848968505859375,0.0009307861328125
2015-04-16 19:54:10.298,884,47197.87563333334,0.3334197998046875,-0.2448272705078125,-0.000335693359375
2015-04-16 19:54:10.308,885,47197.88546170833,0.2934722900390625,-0.229095458984375,-0.004913330078125
2015-04-16 19:54:10.320,886,47197.89508045834,0.322052001953125,-0.2392425537109375,0.0017242431640625
2015-04-16 19:54:10.328,887,47197.90479350001,0.2624664306640625,-0.228546142578125,0.0140380859375
2015-04-16 19:54:10.339,888,47197.916568375,0.2981414794921875,-0.212860107421875,-0.0011138916015625
2015-04-16 19:54:10.349,889,47197.92617716667,0.428985595703125,-0.206695556640625,0.0162506103515625
2015-04-16 19:54:10.371,890,47197.93589683333,0.4280548095703125,-0.2152557373046875,0.0133514404296875
2015-04-16 19:54:10.400,891,47197.94561433334,0.536865234375,-0.1988067626953125,0.016143798828125
2015-04-16 19:54:10.400,892,47197.955340375,0.52545166015625,-0.182769775390625,0.0230560302734375
2015-04-16 19:54:10.401,893,47197.96505704167,0.6826934814453125,-0.19525146484375,0.019622802734375
2015-04-16 19:54:10.401,894,47197.97478020834,0.735626220703125,-0.2851104736328125,0.0352783203125
2015-04-16 19:54:10.407,895,47197.98449479167,0.84979248046875,-0.25140380859375,0.022216796875
2015-04-16 19:54:10.417,896,47197.99421758333,0.94720458984375,-0.252166748046875,0.013427734375
2015-04-16 19:54:10.427,897,47198.004045875,1.037353515625,-0.276824951171875,0.0146484375
2015-04-16 19:54:10.436,898,47198.01365558334,1.120895385742188,-0.3110809326171875,0.013031005859375
2015-04-16 19:54:10.447,899,47198.023482375,1.197067260742188,-0.3748931884765625,0.0086822509765625
2015-04-16 19:54:10.470,900,47198.03320608334,1.179580688476562,-0.3265380859375,0.0017242431640625
2015-04-16 19:54:10.499,901,47198.04281391667,1.171554565429688,-0.3951416015625,0.00115966796875
2015-04-16 19:54:10.500,902,47198.05253679167,1.14581298828125,-0.3802032470703125,-0.003570556640625
2015-04-16 19:54:10.501,903,47198.06225175,1.101150512695312,-0.3645172119140625,-0.0071563720703125
2015-04-16 19:54:10.501,904,47198.07197345833,1.101058959960938,-0.36163330078125,-0.0130462646484375
2015-04-16 19:54:10.504,905,47198.08169283334,1.055389404296875,-0.3440399169921875,-0.020538330078125
2015-04-16 19:54:10.515,906,47198.09152237501,1.019393920898438,-0.3463592529296875,-0.02313232421875
2015-04-16 19:54:10.524,907,47198.10125616667,1.007827758789062,-0.31317138671875,-0.0212249755859375
2015-04-16 19:54:10.533,908,47198.11084879167,0.97161865234375,-0.290740966796875,-0.0249176025390625
2015-04-16 19:54:10.544,909,47198.12069325001,0.937469482421875,-0.2768707275390625,-0.022674560546875
2015-04-16 19:54:10.552,910,47198.13028979167,0.9240570068359375,-0.2627410888671875,-0.02655029296875
2015-04-16 19:54:10.570,911,47198.14000995833,0.9144439697265625,-0.2457122802734375,-0.0275115966796875
2015-04-16 19:54:10.602,912,47198.14972695833,0.94091796875,-0.2387542724609375,-0.025848388671875
2015-04-16 19:54:10.603,913,47198.15944670833,0.9380645751953125,-0.2264251708984375,-0.0200042724609375
2015-04-16 19:54:10.603,914,47198.16917145834,0.967254638671875,-0.2127532958984375,-0.0252532958984375
2015-04-16 19:54:10.625,915,47198.17888779167,0.9774932861328125,-0.184112548828125,-0.022552490234375
2015-04-16 19:54:10.625,916,47198.18860820834,0.990478515625,-0.1553955078125,-0.0277099609375
2015-04-16 19:54:10.626,917,47198.19833483334,1.002655029296875,-0.1390838623046875,-0.0269317626953125
2015-04-16 19:54:10.634,918,47198.20805350001,0.997772216796875,-0.112518310546875,-0.024078369140625
2015-04-16 19:54:10.640,919,47198.217769625,1.006011962890625,-0.08099365234375,-0.02923583984375
2015-04-16 19:54:10.652,920,47198.22748845834,1.002914428710938,-0.0581817626953125,-0.033233642578125
2015-04-16 19:54:10.684,921,47198.237209125,0.98681640625,-0.050750732421875,-0.031158447265625
2015-04-16 19:54:10.709,922,47198.24693066667,0.9772796630859375,-0.048004150390625,-0.0330352783203125
2015-04-16 19:54:10.709,923,47198.25665016667,0.948760986328125,-0.038787841796875,-0.0377197265625
2015-04-16 19:54:10.710,924,47198.266370375,0.9127044677734375,-0.0258941650390625,-0.0364532470703125
2015-04-16 19:54:10.711,925,47198.276094,0.9154815673828125,-0.0163421630859375,-0.036529541015625
2015-04-16 19:54:10.711,926,47198.28581162501,0.932647705078125,-0.0190277099609375,-0.02783203125
2015-04-16 19:54:10.718,927,47198.29553570833,0.9100341796875,-0.03546142578125,-0.028533935546875
2015-04-16 19:54:10.728,928,47198.30529754167,0.9004974365234375,-0.02606201171875,-0.0284881591796875
2015-04-16 19:54:10.737,929,47198.314973,0.88720703125,-0.0043487548828125,-0.019622802734375
2015-04-16 19:54:10.749,930,47198.32477545834,0.8907623291015625,0.009063720703125,-0.029541015625
2015-04-16 19:54:10.772,931,47198.33451795833,0.9145355224609375,0.0054931640625,-0.02386474609375
2015-04-16 19:54:10.800,932,47198.34412616667,0.9105224609375,0.0577239990234375,-0.0113067626953125
2015-04-16 19:54:10.800,933,47198.35384995834,0.921630859375,0.075958251953125,-0.020355224609375
2015-04-16 19:54:10.801,934,47198.36356729167,0.958709716796875,0.0696868896484375,-0.0128173828125
2015-04-16 19:54:10.802,935,47198.373284125,0.964263916015625,0.0973358154296875,-0.0061492919921875
2015-04-16 19:54:10.806,936,47198.383116,0.9629364013671875,0.1401519775390625,-0.0112457275390625
2015-04-16 19:54:10.815,937,47198.39272645833,0.9809112548828125,0.162200927734375,-0.000732421875
2015-04-16 19:54:10.825,938,47198.40255329167,0.9865875244140625,0.1575164794921875,-0.0027313232421875
2015-04-16 19:54:10.835,939,47198.412163,0.966766357421875,0.157257080078125,0.00238037109375
2015-04-16 19:54:10.846,940,47198.42189075,0.9656982421875,0.1743927001953125,0.002288818359375
2015-04-16 19:54:10.856,941,47198.43354779167,0.9648284912109375,0.16107177734375,0.0013885498046875
2015-04-16 19:54:10.900,942,47198.443269,0.9619140625,0.1772003173828125,0.0042877197265625
2015-04-16 19:54:10.901,943,47198.45298970833,0.96484375,0.1705474853515625,0.007232666015625
2015-04-16 19:54:10.901,944,47198.46271070834,0.9750518798828125,0.191619873046875,0.00408935546875
2015-04-16 19:54:10.902,945,47198.472429,0.966583251953125,0.1905517578125,0.0071258544921875
2015-04-16 19:54:10.905,946,47198.48214933334,0.96270751953125,0.2095184326171875,0.010986328125
2015-04-16 19:54:10.915,947,47198.49199858333,0.96356201171875,0.2228546142578125,0.01190185546875
2015-04-16 19:54:10.924,948,47198.50159083334,0.9293212890625,0.2481536865234375,0.0140533447265625
2015-04-16 19:54:10.935,949,47198.511316125,0.9547271728515625,0.262725830078125,0.01080322265625
2015-04-16 19:54:10.947,950,47198.521135875,0.965057373046875,0.265716552734375,0.0057830810546875
2015-04-16 19:54:10.953,951,47198.53078637501,0.969879150390625,0.2704925537109375,0.0145416259765625
2015-04-16 19:54:11.009,952,47198.54048116667,0.944671630859375,0.3321075439453125,0.003692626953125
2015-04-16 19:54:11.010,953,47198.55018916667,0.952117919921875,0.339813232421875,-0.0013427734375
2015-04-16 19:54:11.012,954,47198.55991241667,0.9673309326171875,0.3314361572265625,-0.0004730224609375
2015-04-16 19:54:11.013,955,47198.56962933334,0.9474945068359375,0.3387908935546875,0.006561279296875
2015-04-16 19:54:11.013,956,47198.579354125,0.9130706787109375,0.3641204833984375,-0.0050048828125
2015-04-16 19:54:11.014,957,47198.58906895834,0.9034271240234375,0.390655517578125,-0.003082275390625
2015-04-16 19:54:11.021,958,47198.598957375,0.9108734130859375,0.405029296875,-0.00518798828125
2015-04-16 19:54:11.031,959,47198.60864483334,0.9261474609375,0.3975677490234375,0.0005950927734375
2015-04-16 19:54:11.041,960,47198.61822995834,0.9031219482421875,0.425872802734375,-0.0062103271484375
2015-04-16 19:54:11.050,961,47198.62795091667,0.8983154296875,0.436279296875,-0.0062103271484375
2015-04-16 19:54:11.111,962,47198.63766870834,0.87945556640625,0.435089111328125,-0.0011138916015625
2015-04-16 19:54:11.111,963,47198.64738875,0.8747100830078125,0.43695068359375,-9.1552734375e-05
2015-04-16 19:54:11.112,964,47198.65710945833,0.868927001953125,0.4473724365234375,-0.0030517578125
2015-04-16 19:54:11.113,965,47198.666832125,0.8782501220703125,0.474090576171875,0.00164794921875
2015-04-16 19:54:11.114,966,47198.67655233334,0.884765625,0.4951019287109375,0.003448486328125
2015-04-16 19:54:11.115,967,47198.68626933334,0.8827362060546875,0.5045928955078125,0.0004730224609375
2015-04-16 19:54:11.119,968,47198.69599429167,0.8730926513671875,0.516876220703125,-0.006378173828125
2015-04-16 19:54:11.129,969,47198.70582841667,0.857879638671875,0.5262298583984375,-0.0062713623046875
2015-04-16 19:54:11.138,970,47198.715432,0.8426513671875,0.534637451171875,-0.0091094970703125
2015-04-16 19:54:11.147,971,47198.72514875,0.8455352783203125,0.5498504638671875,0.003570556640625
2015-04-16 19:54:11.206,972,47198.73487141667,0.8292694091796875,0.5724945068359375,0.00360107421875
2015-04-16 19:54:11.206,973,47198.74459154167,0.8385009765625,0.5868988037109375,-0.006378173828125
2015-04-16 19:54:11.208,974,47198.75625725,0.8385009765625,0.5868988037109375,-0.006378173828125
2015-04-16 19:54:11.208,975,47198.76597837501,0.8319091796875,0.592529296875,0.0005340576171875
2015-04-16 19:54:11.209,976,47198.77569912501,0.8431854248046875,0.5983734130859375,-0.0035400390625
2015-04-16 19:54:11.209,977,47198.78541770834,0.83087158203125,0.6039276123046875,-0.0014801025390625
2015-04-16 19:54:11.218,978,47198.79514404167,0.8262481689453125,0.5952911376953125,0.002532958984375
2015-04-16 19:54:11.227,979,47198.80497066667,0.8195953369140625,0.6103973388671875,0.0093994140625
2015-04-16 19:54:11.237,980,47198.81467045833,0.8080902099609375,0.6188812255859375,0.003570556640625
2015-04-16 19:54:11.247,981,47198.82430350001,0.8145751953125,0.632293701171875,-0.00048828125
2015-04-16 19:54:11.295,982,47198.834130875,0.8125152587890625,0.6494140625,-0.0034942626953125
2015-04-16 19:54:11.296,983,47198.84374266667,0.79925537109375,0.6549530029296875,-0.0004425048828125
2015-04-16 19:54:11.297,984,47198.85346429167,0.796478271484375,0.6577301025390625,0.0064544677734375
2015-04-16 19:54:11.298,985,47198.86318320833,0.7783050537109375,0.6661529541015625,-0.0032501220703125
2015-04-16 19:54:11.298,986,47198.87290591667,0.7781829833984375,0.6775665283203125,-0.006256103515625
2015-04-16 19:54:11.305,987,47198.882621375,0.7621307373046875,0.684967041015625,0.0017242431640625
2015-04-16 19:54:11.315,988,47198.892345625,0.7517547607421875,0.686737060546875,0.0047607421875
2015-04-16 19:54:11.324,989,47198.90219725,0.7515411376953125,0.7057952880859375,-0.000244140625
2015-04-16 19:54:11.335,990,47198.91179083334,0.76104736328125,0.6982879638671875,-0.0012664794921875
2015-04-16 19:54:11.344,991,47198.92162433334,0.75152587890625,0.7067413330078125,-0.001220703125
2015-04-16 19:54:11.355,992,47198.93133970834,0.7401123046875,0.7056884765625,-0.0060272216796875
2015-04-16 19:54:11.368,993,47198.940946625,0.7440185546875,0.699981689453125,0.0008544921875
2015-04-16 19:54:11.396,994,47198.95066841667,0.741119384765625,0.70947265625,0.0008392333984375
2015-04-16 19:54:11.397,995,47198.96039025,0.7363739013671875,0.7179718017578125,0.0047607421875
2015-04-16 19:54:11.398,996,47198.97010929167,0.7192230224609375,0.7329864501953125,0.005828857421875
2015-04-16 19:54:11.403,997,47198.97982920834,0.7210540771484375,0.7425384521484375,0.0047760009765625
2015-04-16 19:54:11.413,998,47198.989661,0.7125091552734375,0.7462310791015625,0.0068206787109375
2015-04-16 19:54:11.421,999,47198.99927008334,0.7077484130859375,0.7462005615234375,0.0039215087890625
2015-04-16 19:54:11.431,1000,47199.00899220834,0.6926116943359375,0.7469635009765625,0.005035400390625
2015-04-16 19:54:11.441,1001,47199.01874295834,0.693450927734375,0.7517547607421875,-0.000885009765625
2015-04-16 19:54:11.452,1002,47199.02843258333,0.6821136474609375,0.7554168701171875,0.004119873046875
2015-04-16 19:54:11.471,1003,47199.03815695833,0.6878204345703125,0.762115478515625,0.010894775390625
2015-04-16 19:54:11.498,1004,47199.04787245834,0.79693603515625,0.7022247314453125,0.067108154296875
2015-04-16 19:54:11.499,1005,47199.05759341667,0.6865997314453125,0.7581024169921875,0.0600433349609375
2015-04-16 19:54:11.499,1006,47199.06731791667,0.6878662109375,0.719085693359375,0.0631866455078125
2015-04-16 19:54:11.502,1007,47199.07703350001,0.6805267333984375,0.7686004638671875,0.035491943359375
2015-04-16 19:54:11.509,1008,47199.08675158334,0.6594390869140625,0.772216796875,0.01800537109375
2015-04-16 19:54:11.519,1009,47199.09647425,0.6649169921875,0.7571563720703125,-0.00555419921875
2015-04-16 19:54:11.530,1010,47199.10624233334,0.60498046875,0.8011932373046875,-0.0032196044921875
2015-04-16 19:54:11.538,1011,47199.11591108334,0.6677703857421875,0.76763916015625,0.001251220703125
2015-04-16 19:54:11.549,1012,47199.125628875,0.6202850341796875,0.8041534423828125,0.0113372802734375
2015-04-16 19:54:11.570,1013,47199.13534837501,0.643951416015625,0.8015899658203125,0.0091705322265625
2015-04-16 19:54:11.601,1014,47199.14506391667,0.617523193359375,0.7860565185546875,0.006561279296875
2015-04-16 19:54:11.602,1015,47199.15478554167,0.6240692138671875,0.801361083984375,0.0083770751953125
2015-04-16 19:54:11.603,1016,47199.164500125,0.6232757568359375,0.7899169921875,0.0133514404296875
2015-04-16 19:54:11.604,1017,47199.17422175,0.6145782470703125,0.8060150146484375,0.0094451904296875
2015-04-16 19:54:11.607,1018,47199.18394104167,0.611846923828125,0.8011932373046875,0.0153656005859375
2015-04-16 19:54:11.616,1019,47199.19366391667,0.6003265380859375,0.8134613037109375,0.0095367431640625
2015-04-16 19:54:11.626,1020,47199.20348987501,0.602264404296875,0.805877685546875,0.008575439453125
2015-04-16 19:54:11.635,1021,47199.21309675001,0.5919036865234375,0.8047943115234375,0.013580322265625
2015-04-16 19:54:11.646,1022,47199.22282045834,0.5908966064453125,0.811431884765625,0.0125885009765625
2015-04-16 19:54:11.655,1023,47199.232536625,0.5899200439453125,0.807647705078125,0.0076904296875
2015-04-16 19:54:11.670,1024,47199.24225604167,0.58905029296875,0.8028564453125,0.01165771484375
2015-04-16 19:54:11.699,1025,47199.25197858334,0.581512451171875,0.7989501953125,0.010772705078125
2015-04-16 19:54:11.700,1026,47199.26169583334,0.5777587890625,0.79510498046875,0.0108184814453125
2015-04-16 19:54:11.700,1027,47199.27141866667,0.5795440673828125,0.812255859375,0.0126953125
2015-04-16 19:54:11.704,1028,47199.28113504167,0.5709228515625,0.813140869140625,0.0058746337890625
2015-04-16 19:54:11.716,1029,47199.29096591667,0.5738372802734375,0.8112640380859375,0.0098114013671875
2015-04-16 19:54:11.723,1030,47199.30057158334,0.574676513671875,0.8141326904296875,0.002899169921875
2015-04-16 19:54:11.733,1031,47199.31032666667,0.5727691650390625,0.8169708251953125,0.0048675537109375
2015-04-16 19:54:11.743,1032,47199.32012079167,0.5746307373046875,0.821746826171875,0.0038299560546875
2015-04-16 19:54:11.752,1033,47199.32972854167,0.56982421875,0.822662353515625,-0.0010223388671875
2015-04-16 19:54:11.772,1034,47199.33945470834,0.56884765625,0.8264617919921875,-0.0010223388671875
2015-04-16 19:54:11.801,1035,47199.34916833333,0.5660400390625,0.8254852294921875,0.0019378662109375
2015-04-16 19:54:11.802,1036,47199.358889125,0.5698699951171875,0.8274078369140625,0.005828857421875
2015-04-16 19:54:11.803,1037,47199.368621,0.5726776123046875,0.8321990966796875,0.005767822265625
2015-04-16 19:54:11.803,1038,47199.37832958333,0.5744781494140625,0.8350830078125,-0.001129150390625
2015-04-16 19:54:11.810,1039,47199.38815625,0.5763092041015625,0.837982177734375,-0.0031280517578125
2015-04-16 19:54:11.820,1040,47199.39777533334,0.5763092041015625,0.8370361328125,-0.00408935546875
2015-04-16 19:54:11.830,1041,47199.4076035,0.5782012939453125,0.836090087890625,-0.0041046142578125
2015-04-16 19:54:11.840,1042,47199.417315375,0.5697479248046875,0.83123779296875,-0.001068115234375
2015-04-16 19:54:11.851,1043,47199.42693066667,0.5669097900390625,0.83026123046875,-0.00201416015625
2015-04-16 19:54:11.872,1044,47199.43664633334,0.5650482177734375,0.8311767578125,0.001922607421875
2015-04-16 19:54:11.902,1045,47199.446360875,0.5687713623046875,0.8350372314453125,-0.0020599365234375
2015-04-16 19:54:11.903,1046,47199.45802704167,0.5707550048828125,0.8169708251953125,-0.0039520263671875
2015-04-16 19:54:11.903,1047,47199.46774695833,0.5736083984375,0.82177734375,-0.002044677734375
2015-04-16 19:54:11.904,1048,47199.47746358334,0.573638916015625,0.819854736328125,-0.00103759765625
2015-04-16 19:54:11.910,1049,47199.48718483334,0.573577880859375,0.8189239501953125,-0.004974365234375
2015-04-16 19:54:11.920,1050,47199.49690329167,0.5772857666015625,0.829437255859375,-0.00604248046875
2015-04-16 19:54:11.928,1051,47199.50662258334,0.575469970703125,0.8293914794921875,0.0008392333984375
2015-04-16 19:54:11.938,1052,47199.51634158334,0.57354736328125,0.8236846923828125,-0.0049896240234375
2015-04-16 19:54:11.951,1053,47199.52606375,0.57550048828125,0.81988525390625,-0.0030364990234375
2015-04-16 19:54:11.971,1054,47199.53578325,0.5784759521484375,0.814178466796875,0.00384521484375
2015-04-16 19:54:12.002,1055,47199.54551445834,0.5727386474609375,0.8141326904296875,0.000946044921875
2015-04-16 19:54:12.003,1056,47199.55522245834,0.5812835693359375,0.8161163330078125,0.0028228759765625
2015-04-16 19:54:12.003,1057,47199.56494275,0.5831298828125,0.815216064453125,-0.0010986328125
2015-04-16 19:54:12.004,1058,47199.574658625,0.58319091796875,0.812347412109375,0.001861572265625
2015-04-16 19:54:12.007,1059,47199.58438116667,0.5907135009765625,0.82098388671875,0.002716064453125
2015-04-16 19:54:12.018,1060,47199.59604458333,0.5897369384765625,0.820037841796875,-0.0002288818359375
2015-04-16 19:54:12.029,1061,47199.60576816667,0.5944671630859375,0.821044921875,-0.000274658203125
2015-04-16 19:54:12.038,1062,47199.61559525,0.5860748291015625,0.80572509765625,0.001861572265625
2015-04-16 19:54:12.048,1063,47199.62522366667,0.58978271484375,0.8190765380859375,0.003692626953125
2015-04-16 19:54:12.074,1064,47199.63503304167,0.583160400390625,0.8133087158203125,0.0008544921875
2015-04-16 19:54:12.105,1065,47199.64464270834,0.5944976806640625,0.815338134765625,-0.000244140625
2015-04-16 19:54:12.105,1066,47199.65436279167,0.5936279296875,0.8143463134765625,0.0046844482421875
2015-04-16 19:54:12.106,1067,47199.66408483333,0.60125732421875,0.804931640625,0.003662109375
2015-04-16 19:54:12.107,1068,47199.6738025,0.5984649658203125,0.8039398193359375,0.0056610107421875
2015-04-16 19:54:12.107,1069,47199.6835245,0.6031951904296875,0.8040008544921875,0.005615234375
2015-04-16 19:54:12.116,1070,47199.69324583334,0.5928192138671875,0.799102783203125,0.007720947265625
2015-04-16 19:54:12.126,1071,47199.70296654167,0.5965576171875,0.8010711669921875,0.0047149658203125
2015-04-16 19:54:12.136,1072,47199.71281120834,0.593719482421875,0.8019866943359375,0.0047454833984375
2015-04-16 19:54:12.145,1073,47199.72252700001,0.5919647216796875,0.793365478515625,0.0106964111328125
2015-04-16 19:54:12.156,1074,47199.73223541667,0.597564697265625,0.7963104248046875,0.0047454833984375
2015-04-16 19:54:12.197,1075,47199.741846,0.5937042236328125,0.8038787841796875,0.004730224609375
2015-04-16 19:54:12.198,1076,47199.751567375,0.598480224609375,0.80108642578125,0.00567626953125
2015-04-16 19:54:12.198,1077,47199.76128716667,0.5966033935546875,0.7991485595703125,0.0076751708984375
2015-04-16 19:54:12.199,1078,47199.77100641667,0.598388671875,0.8049163818359375,0.001739501953125
2015-04-16 19:54:12.203,1079,47199.78073391667,0.60321044921875,0.8049468994140625,0.0085601806640625
2015-04-16 19:54:12.213,1080,47199.79055441667,0.6050872802734375,0.8040008544921875,0.006591796875
2015-04-16 19:54:12.223,1081,47199.80027533333,0.6060333251953125,0.7954864501953125,0.001708984375
2015-04-16 19:54:12.232,1082,47199.809888125,0.6125946044921875,0.80792236328125,0.0035400390625
2015-04-16 19:54:12.243,1083,47199.819716625,0.61456298828125,0.8050689697265625,0.008453369140625
2015-04-16 19:54:12.252,1084,47199.82940508334,0.615447998046875,0.803192138671875,0.0025634765625
2015-04-16 19:54:12.296,1085,47199.83904241667,0.616485595703125,0.7984161376953125,0.006500244140625
2015-04-16 19:54:12.296,1086,47199.848763875,0.62408447265625,0.801361083984375,0.009368896484375
2015-04-16 19:54:12.297,1087,47199.85848504167,0.6259918212890625,0.7985382080078125,0.00836181640625
2015-04-16 19:54:12.297,1088,47199.86820745833,0.625091552734375,0.795654296875,0.0113372802734375
2015-04-16 19:54:12.300,1089,47199.87792695834,0.62420654296875,0.7908782958984375,0.0133514404296875
2015-04-16 19:54:12.310,1090,47199.88764537501,0.6260986328125,0.7890167236328125,0.0123443603515625
2015-04-16 19:54:12.320,1091,47199.897476125,0.6223907470703125,0.783233642578125,0.014373779296875
2015-04-16 19:54:12.330,1092,47199.90719495834,0.620452880859375,0.7822723388671875,0.010467529296875
2015-04-16 19:54:12.339,1093,47199.916805,0.6251373291015625,0.7842559814453125,0.007476806640625
2015-04-16 19:54:12.349,1094,47199.92652916667,0.6316986083984375,0.7938385009765625,0.0083465576171875
2015-04-16 19:54:12.398,1095,47199.936368125,0.634552001953125,0.7938690185546875,0.009307861328125
2015-04-16 19:54:12.398,1096,47199.94596533334,0.637451171875,0.786285400390625,0.009307861328125
2015-04-16 19:54:12.399,1097,47199.95568675,0.6412811279296875,0.776824951171875,0.008331298828125
2015-04-16 19:54:12.399,1098,47199.96540716667,0.65264892578125,0.7760009765625,0.0072479248046875
2015-04-16 19:54:12.401,1099,47199.97512779167,0.6470794677734375,0.77020263671875,0.012237548828125
2015-04-16 19:54:12.407,1100,47199.98492133334,0.6555633544921875,0.77032470703125,0.00921630859375
2015-04-16 19:54:12.417,1101,47199.99456908333,0.6583709716796875,0.7751007080078125,0.0111236572265625
2015-04-16 19:54:12.427,1102,47200.00439891667,0.6593170166015625,0.7751007080078125,0.0101318359375
2015-04-16 19:54:12.439,1103,47200.01606325,0.6545562744140625,0.7769775390625,0.009185791015625
2015-04-16 19:54:12.449,1104,47200.02567304167,0.6526031494140625,0.779815673828125,0.0052642822265625
2015-04-16 19:54:12.494,1105,47200.03538845834,0.6544342041015625,0.7798614501953125,0.001312255859375
2015-04-16 19:54:12.494,1106,47200.04510700001,0.6593017578125,0.770355224609375,0.0062255859375
2015-04-16 19:54:12.495,1107,47200.05482945834,0.656402587890625,0.7741546630859375,0.0032806396484375
2015-04-16 19:54:12.496,1108,47200.06454816667,0.6649627685546875,0.7675933837890625,0.00323486328125
2015-04-16 19:54:12.497,1109,47200.074266,0.6659698486328125,0.7628326416015625,0.0062103271484375
2015-04-16 19:54:12.506,1110,47200.08409400001,0.6640472412109375,0.761871337890625,0.002288818359375
2015-04-16 19:54:12.516,1111,47200.09370833333,0.659332275390625,0.75421142578125,0.000396728515625
2015-04-16 19:54:12.526,1112,47200.10353270834,0.6650390625,0.7561798095703125,0.0023193359375
2015-04-16 19:54:12.536,1113,47200.11314483333,0.65936279296875,0.756103515625,0.0023651123046875
2015-04-16 19:54:12.546,1114,47200.12286245834,0.6574859619140625,0.7484893798828125,-0.000518798828125
2015-04-16 19:54:12.555,1115,47200.132581875,0.6613311767578125,0.746612548828125,0.0033721923828125
2015-04-16 19:54:12.568,1116,47200.14230158334,0.664093017578125,0.755218505859375,0.0023193359375
2015-04-16 19:54:12.596,1117,47200.152022,0.66510009765625,0.7514190673828125,0.004302978515625
2015-04-16 19:54:12.597,1118,47200.161741875,0.66790771484375,0.74481201171875,-0.0015869140625
2015-04-16 19:54:12.597,1119,47200.1714665,0.6699371337890625,0.7400360107421875,0.00628662109375
2015-04-16 19:54:12.604,1120,47200.18118995833,0.6736602783203125,0.7372589111328125,-0.0016021728515625
2015-04-16 19:54:12.613,1121,47200.19090608333,0.6708526611328125,0.735321044921875,-0.0005950927734375
2015-04-16 19:54:12.622,1122,47200.20062270833,0.671783447265625,0.7343902587890625,-0.001556396484375
2015-04-16 19:54:12.633,1123,47200.21034383334,0.675567626953125,0.737274169921875,-0.000640869140625
2015-04-16 19:54:12.642,1124,47200.220177625,0.67742919921875,0.743011474609375,0.00128173828125
2015-04-16 19:54:12.651,1125,47200.22978308333,0.67547607421875,0.7410888671875,-0.00457763671875
2015-04-16 19:54:12.669,1126,47200.239507625,0.6773223876953125,0.7449493408203125,-0.006591796875
2015-04-16 19:54:12.695,1127,47200.24922945834,0.68310546875,0.7402191162109375,-0.000732421875
2015-04-16 19:54:12.695,1128,47200.25894645834,0.676483154296875,0.7363433837890625,-0.0026092529296875
2015-04-16 19:54:12.696,1129,47200.26866941667,0.673583984375,0.7401275634765625,-0.0045623779296875
2015-04-16 19:54:12.702,1130,47200.28033050001,0.6745452880859375,0.73919677734375,-0.0045623779296875
2015-04-16 19:54:12.712,1131,47200.29015991667,0.672698974609375,0.7400970458984375,0.0003509521484375
2015-04-16 19:54:12.722,1132,47200.29988245833,0.683929443359375,0.7516632080078125,-0.0037384033203125
2015-04-16 19:54:12.732,1133,47200.30949216667,0.6792144775390625,0.7506561279296875,-0.0027008056640625
2015-04-16 19:54:12.741,1134,47200.31932041667,0.6868896484375,0.7526092529296875,0.0070343017578125
2015-04-16 19:54:12.752,1135,47200.32904270833,0.6849822998046875,0.750701904296875,0.004119873046875
2015-04-16 19:54:12.769,1136,47200.33865695834,0.6830291748046875,0.7535400390625,0.0011749267578125
2015-04-16 19:54:12.795,1137,47200.34837291667,0.6840667724609375,0.747833251953125,0.004150390625
2015-04-16 19:54:12.795,1138,47200.3580945,0.6784515380859375,0.7410888671875,0.006195068359375
2015-04-16 19:54:12.796,1139,47200.36781825,0.682220458984375,0.7430419921875,0.005157470703125
2015-04-16 19:54:12.799,1140,47200.377539,0.68035888671875,0.739227294921875,0.00518798828125
2015-04-16 19:54:12.809,1141,47200.38736970833,0.6831817626953125,0.7401885986328125,0.0061492919921875
2015-04-16 19:54:12.819,1142,47200.39697920834,0.6812896728515625,0.7430267333984375,0.00714111328125
2015-04-16 19:54:12.830,1143,47200.40680975001,0.6802215576171875,0.7458953857421875,-0.001708984375
2015-04-16 19:54:12.838,1144,47200.41654095834,0.6765594482421875,0.7410736083984375,0.0052337646484375
2015-04-16 19:54:12.848,1145,47200.42614208334,0.6793975830078125,0.7401580810546875,0.0052032470703125
2015-04-16 19:54:12.869,1146,47200.43586258333,0.673736572265625,0.7343902587890625,0.0033111572265625
2015-04-16 19:54:12.898,1147,47200.44557970834,0.6728057861328125,0.7296295166015625,0.0013885498046875
2015-04-16 19:54:12.899,1148,47200.45530316667,0.669036865234375,0.7295684814453125,0.0023956298828125
2015-04-16 19:54:12.900,1149,47200.46502245834,0.6670989990234375,0.7305145263671875,0.0014495849609375
2015-04-16 19:54:12.900,1150,47200.47474625,0.667144775390625,0.730499267578125,0.00439453125
2015-04-16 19:54:12.907,1151,47200.484580875,0.666168212890625,0.7304840087890625,0.0024261474609375
2015-04-16 19:54:12.916,1152,47200.49418820834,0.6623077392578125,0.73333740234375,-0.0024566650390625
2015-04-16 19:54:12.926,1153,47200.50391045833,0.6642608642578125,0.7323760986328125,0.0024261474609375
2015-04-16 19:54:12.935,1154,47200.513638875,0.6670379638671875,0.7324371337890625,-0.00250244140625
2015-04-16 19:54:12.948,1155,47200.52533358333,0.674652099609375,0.7382049560546875,0.0032958984375
2015-04-16 19:54:12.970,1156,47200.53511787501,0.6737060546875,0.7362823486328125,0.0023193359375
2015-04-16 19:54:12.998,1157,47200.54667075,0.674652099609375,0.7382049560546875,0.0032958984375
2015-04-16 19:54:12.998,1158,47200.556391625,0.6737060546875,0.7362823486328125,0.0023193359375
2015-04-16 19:54:12.999,1159,47200.56611462501,0.6717376708984375,0.742950439453125,-0.0006256103515625
2015-04-16 19:54:13.001,1160,47200.57583341667,0.677459716796875,0.738250732421875,0.001312255859375
2015-04-16 19:54:13.007,1161,47200.58566533334,0.677459716796875,0.7373046875,0.0003204345703125
2015-04-16 19:54:13.017,1162,47200.59527120834,0.6756134033203125,0.73345947265625,0.0013427734375
2015-04-16 19:54:13.027,1163,47200.60510141667,0.6775054931640625,0.7325439453125,0.0013275146484375
2015-04-16 19:54:13.037,1164,47200.61471170834,0.6765899658203125,0.732513427734375,0.0032958984375
2015-04-16 19:54:13.047,1165,47200.62450833333,0.6822662353515625,0.737335205078125,0.00518798828125
2015-04-16 19:54:13.073,1166,47200.63419620834,0.6774749755859375,0.7439422607421875,0.0042266845703125
2015-04-16 19:54:13.102,1167,47200.643874,0.673583984375,0.7553253173828125,0.003204345703125
2015-04-16 19:54:13.103,1168,47200.65359454167,0.677398681640625,0.7544097900390625,0.0051422119140625
2015-04-16 19:54:13.104,1169,47200.66331408334,0.6754913330078125,0.7524871826171875,0.003204345703125
2015-04-16 19:54:13.104,1170,47200.67303608334,0.6736297607421875,0.7524566650390625,0.0061798095703125
2015-04-16 19:54:13.105,1171,47200.682753,0.673614501953125,0.7477264404296875,0.0012969970703125
2015-04-16 19:54:13.116,1172,47200.69247195833,0.6709136962890625,0.737213134765625,0.0052947998046875
2015-04-16 19:54:13.126,1173,47200.70426595834,0.6605377197265625,0.736114501953125,0.00933837890625
2015-04-16 19:54:13.136,1174,47200.71397325,0.6518707275390625,0.7398681640625,0.00054931640625
2015-04-16 19:54:13.148,1175,47200.72551545833,0.6605377197265625,0.736114501953125,0.00933837890625
2015-04-16 19:54:13.171,1176,47200.73534341667,0.6518707275390625,0.7398681640625,0.00054931640625
2015-04-16 19:54:13.200,1177,47200.74495379167,0.6443023681640625,0.74072265625,0.001617431640625
2015-04-16 19:54:13.200,1178,47200.75467758334,0.6480865478515625,0.74456787109375,0.002532958984375
2015-04-16 19:54:13.201,1179,47200.76439504167,0.637725830078125,0.7368316650390625,0.0026702880859375
2015-04-16 19:54:13.201,1180,47200.77411441667,0.643310546875,0.739776611328125,-0.0023040771484375
2015-04-16 19:54:13.206,1181,47200.78395416667,0.645263671875,0.7359771728515625,-0.0013275146484375
2015-04-16 19:54:13.215,1182,47200.79355966667,0.64434814453125,0.736907958984375,0.0026092529296875
