loggingTime,loggingSample,accelerometerTimestamp_sinceReboot,accelerometerAccelerationX,accelerometerAccelerationY,accelerometerAccelerationZ
2015-04-16 19:56:20.434,1,47327.950354375,-0.6363372802734375,0.7937469482421875,-0.00787353515625
2015-04-16 19:56:20.435,2,47327.96007741667,-0.63824462890625,0.7927703857421875,-0.00982666015625
2015-04-16 19:56:20.436,3,47327.96979654167,-0.636322021484375,0.788055419921875,-0.0098114013671875
2015-04-16 19:56:20.436,4,47327.97951379167,-0.6512908935546875,0.7669219970703125,-0.0085906982421875
2015-04-16 19:56:20.437,5,47327.98923229167,-0.6835174560546875,0.6998138427734375,0.024444580078125
2015-04-16 19:56:20.437,6,47327.998949125,-0.6122589111328125,0.858734130859375,-0.0133514404296875
2015-04-16 19:56:20.438,7,47328.008665875,-0.641937255859375,0.911956787109375,-0.0820770263671875
2015-04-16 19:56:20.440,8,47328.01838495833,-0.6227264404296875,0.916839599609375,-0.0567474365234375
2015-04-16 19:56:20.450,9,47328.02810800001,-0.749359130859375,0.8204498291015625,0.1286163330078125
2015-04-16 19:56:20.470,10,47328.037826125,-0.63427734375,0.8105010986328125,0.0882568359375
2015-04-16 19:56:20.498,11,47328.04754120834,-0.6726226806640625,0.7931365966796875,0.04058837890625
2015-04-16 19:56:20.498,12,47328.05726158334,-0.6281280517578125,0.7803497314453125,0.0323638916015625
2015-04-16 19:56:20.499,13,47328.06698037501,-0.6544647216796875,0.75244140625,0.030792236328125
2015-04-16 19:56:20.499,14,47328.07669970833,-0.658599853515625,0.7895355224609375,0.025726318359375
2015-04-16 19:56:20.508,15,47328.08641620834,-0.6520843505859375,0.7839508056640625,0.0129241943359375
2015-04-16 19:56:20.518,16,47328.09613470834,-0.635284423828125,0.788970947265625,-0.0019683837890625
2015-04-16 19:56:20.528,17,47328.10596275,-0.6483306884765625,0.7678680419921875,0.000213623046875
2015-04-16 19:56:20.537,18,47328.11557229167,-0.6381683349609375,0.7889556884765625,-0.005859375
2015-04-16 19:56:20.548,19,47328.12533825,-0.6429290771484375,0.7784576416015625,-0.0136260986328125
2015-04-16 19:56:20.569,20,47328.13512045833,-0.6485595703125,0.7755279541015625,-0.0125885009765625
2015-04-16 19:56:20.596,21,47328.144732875,-0.6599273681640625,0.779205322265625,-0.0095367431640625
2015-04-16 19:56:20.597,22,47328.15444779167,-0.642120361328125,0.7965545654296875,-0.0147247314453125
2015-04-16 19:56:20.597,23,47328.16416316667,-0.6345062255859375,0.7880859375,-0.0167083740234375
2015-04-16 19:56:20.599,24,47328.17388675,-0.636199951171875,0.77471923828125,-0.007781982421875
2015-04-16 19:56:20.605,25,47328.183712625,-0.6485748291015625,0.788818359375,-0.004791259765625
2015-04-16 19:56:20.616,26,47328.19332670834,-0.6552886962890625,0.7963714599609375,-0.008697509765625
2015-04-16 19:56:20.626,27,47328.20314729167,-0.6238861083984375,0.773895263671875,-0.0088958740234375
2015-04-16 19:56:20.635,28,47328.212757,-0.6370391845703125,0.7794036865234375,0.00299072265625
2015-04-16 19:56:20.645,29,47328.2225875,-0.6370849609375,0.7917633056640625,0.0068511962890625
2015-04-16 19:56:20.653,30,47328.232196875,-0.6466522216796875,0.804046630859375,0.004913330078125
2015-04-16 19:56:20.670,31,47328.24191366667,-0.62554931640625,0.7794952392578125,0.01171875
2015-04-16 19:56:20.700,32,47328.251634375,-0.642730712890625,0.793609619140625,0.0098419189453125
2015-04-16 19:56:20.701,33,47328.26135333334,-0.63519287109375,0.7936859130859375,0.0078125
2015-04-16 19:56:20.701,34,47328.27107812501,-0.6381378173828125,0.7974853515625,0.0019378662109375
2015-04-16 19:56:20.702,35,47328.28079233334,-0.632354736328125,0.7918243408203125,0.005828857421875
2015-04-16 19:56:20.715,36,47328.29061920834,-0.6324615478515625,0.8013458251953125,0.003814697265625
2015-04-16 19:56:20.722,37,47328.30023366667,-0.630584716796875,0.793792724609375,-0.003021240234375
2015-04-16 19:56:20.732,38,47328.3099555,-0.6296844482421875,0.7899932861328125,-0.0089263916015625
2015-04-16 19:56:20.741,39,47328.31967216667,-0.633514404296875,0.7928314208984375,-0.0098724365234375
2015-04-16 19:56:20.750,40,47328.32941541667,-0.6327056884765625,0.80426025390625,-0.01385498046875
2015-04-16 19:56:20.771,41,47328.33910870834,-0.6278839111328125,0.7976531982421875,-0.0119171142578125
2015-04-16 19:56:20.802,42,47328.34882545834,-0.6277923583984375,0.79193115234375,-0.0079498291015625
2015-04-16 19:56:20.802,43,47328.35855579167,-0.623992919921875,0.794830322265625,-0.0060272216796875
2015-04-16 19:56:20.803,44,47328.36826666667,-0.6250457763671875,0.801483154296875,-0.0090179443359375
2015-04-16 19:56:20.803,45,47328.37798291667,-0.628814697265625,0.8033294677734375,-0.00701904296875
2015-04-16 19:56:20.810,46,47328.38782808334,-0.6278228759765625,0.80523681640625,-0.00213623046875
2015-04-16 19:56:20.819,47,47328.397423,-0.622039794921875,0.8014678955078125,0.00372314453125
2015-04-16 19:56:20.830,48,47328.40728079167,-0.619140625,0.7986297607421875,0.00567626953125
2015-04-16 19:56:20.839,49,47328.41697883334,-0.6239776611328125,0.8061981201171875,0.0027313232421875
2015-04-16 19:56:20.847,50,47328.42657983334,-0.6258392333984375,0.803314208984375,0.0037384033203125
2015-04-16 19:56:20.870,51,47328.43630575,-0.6220855712890625,0.805267333984375,0.002716064453125
2015-04-16 19:56:20.899,52,47328.44602104167,-0.6201324462890625,0.8033905029296875,0.005645751953125
2015-04-16 19:56:20.900,53,47328.455742625,-0.621124267578125,0.8024444580078125,0.001739501953125
2015-04-16 19:56:20.900,54,47328.46546083334,-0.61639404296875,0.7996368408203125,-0.000244140625
2015-04-16 19:56:20.901,55,47328.47518370834,-0.6202239990234375,0.8053131103515625,0.000732421875
2015-04-16 19:56:20.907,56,47328.48501008334,-0.6202239990234375,0.807220458984375,-0.000244140625
2015-04-16 19:56:20.917,57,47328.49462258333,-0.62310791015625,0.80908203125,-0.002197265625
2015-04-16 19:56:20.926,58,47328.504342,-0.6193389892578125,0.8062744140625,-0.004180908203125
2015-04-16 19:56:20.936,59,47328.51418120834,-0.6136627197265625,0.8044586181640625,-0.0052032470703125
2015-04-16 19:56:20.948,60,47328.52389016667,-0.6126556396484375,0.7968597412109375,-0.0061492919921875
2015-04-16 19:56:20.970,61,47328.53360679167,-0.6136474609375,0.8044586181640625,-0.0042266845703125
2015-04-16 19:56:21.000,62,47328.54321483333,-0.619354248046875,0.8081817626953125,-0.0041961669921875
2015-04-16 19:56:21.001,63,47328.55293325,-0.6203460693359375,0.808197021484375,-0.00811767578125
2015-04-16 19:56:21.002,64,47328.562653375,-0.62115478515625,0.804351806640625,0.000762939453125
2015-04-16 19:56:21.002,65,47328.57239204167,-0.6154632568359375,0.8015594482421875,-0.0002593994140625
2015-04-16 19:56:21.003,66,47328.58209241667,-0.613555908203125,0.8015899658203125,0.001678466796875
2015-04-16 19:56:21.015,67,47328.59195641667,-0.6201934814453125,0.8090972900390625,0.0036468505859375
2015-04-16 19:56:21.024,68,47328.60153025,-0.6221466064453125,0.81195068359375,0.001708984375
2015-04-16 19:56:21.033,69,47328.61125345834,-0.6220855712890625,0.8119354248046875,0.0056304931640625
2015-04-16 19:56:21.043,70,47328.62110058334,-0.621124267578125,0.80718994140625,0.0036773681640625
2015-04-16 19:56:21.052,71,47328.630712875,-0.6144561767578125,0.7986907958984375,0.002685546875
2015-04-16 19:56:21.098,72,47328.640419625,-0.6183319091796875,0.80438232421875,-0.0012359619140625
2015-04-16 19:56:21.098,73,47328.65013050001,-0.617431640625,0.8091583251953125,-0.0022430419921875
2015-04-16 19:56:21.099,74,47328.659846125,-0.6202850341796875,0.81103515625,-0.002227783203125
2015-04-16 19:56:21.100,75,47328.669565125,-0.6183624267578125,0.8053436279296875,-0.002227783203125
2015-04-16 19:56:21.101,76,47328.67928212501,-0.616455078125,0.7986907958984375,-0.0051422119140625
2015-04-16 19:56:21.112,77,47328.68910833334,-0.6211700439453125,0.802459716796875,-0.0021820068359375
2015-04-16 19:56:21.121,78,47328.69872745834,-0.617401123046875,0.8062896728515625,-0.001251220703125
2015-04-16 19:56:21.130,79,47328.70844041667,-0.6165313720703125,0.811065673828125,-0.0042266845703125
2015-04-16 19:56:21.140,80,47328.71815737501,-0.6222076416015625,0.8053131103515625,-0.0070953369140625
2015-04-16 19:56:21.150,81,47328.72798370833,-0.6136322021484375,0.8063507080078125,-0.0022735595703125
2015-04-16 19:56:21.180,82,47328.73759666667,-0.61834716796875,0.802490234375,-0.0031890869140625
2015-04-16 19:56:21.210,83,47328.74730958333,-0.6212158203125,0.8053131103515625,-0.003173828125
2015-04-16 19:56:21.211,84,47328.75702962501,-0.6259613037109375,0.8061981201171875,-0.004119873046875
2015-04-16 19:56:21.211,85,47328.766754125,-0.6183929443359375,0.8101043701171875,-0.0022430419921875
2015-04-16 19:56:21.212,86,47328.77646991667,-0.617401123046875,0.804412841796875,-0.0022125244140625
2015-04-16 19:56:21.213,87,47328.78619079167,-0.6192779541015625,0.8015289306640625,-0.0021820068359375
2015-04-16 19:56:21.218,88,47328.79590833333,-0.6192779541015625,0.8062591552734375,0.000732421875
2015-04-16 19:56:21.227,89,47328.80574804167,-0.621124267578125,0.8062286376953125,0.0036773681640625
2015-04-16 19:56:21.237,90,47328.81545758334,-0.6221466064453125,0.8072052001953125,-0.0021820068359375
2015-04-16 19:56:21.247,91,47328.82517404167,-0.616424560546875,0.80059814453125,-0.0022125244140625
2015-04-16 19:56:21.270,92,47328.83478858334,-0.6136322021484375,0.803497314453125,-0.00323486328125
2015-04-16 19:56:21.297,93,47328.84644945834,-0.6212158203125,0.8043670654296875,-0.004150390625
2015-04-16 19:56:21.298,94,47328.85617029167,-0.6211700439453125,0.7957916259765625,-0.005096435546875
2015-04-16 19:56:21.299,95,47328.86589354167,-0.621185302734375,0.8005523681640625,-0.0041351318359375
2015-04-16 19:56:21.302,96,47328.87560904167,-0.621185302734375,0.8072052001953125,-0.001220703125
2015-04-16 19:56:21.308,97,47328.88544258333,-0.627838134765625,0.8023834228515625,-0.00506591796875
2015-04-16 19:56:21.319,98,47328.897066875,-0.6211395263671875,0.79864501953125,-0.0021514892578125
2015-04-16 19:56:21.329,99,47328.90682054167,-0.621124267578125,0.8024444580078125,0.001739501953125
2015-04-16 19:56:21.337,100,47328.91643208334,-0.62115478515625,0.8033905029296875,-0.000213623046875
2015-04-16 19:56:21.348,101,47328.92615291667,-0.621124267578125,0.800537109375,0.0007781982421875
2015-04-16 19:56:21.399,102,47328.93588441667,-0.62774658203125,0.7995147705078125,-0.0001373291015625
2015-04-16 19:56:21.399,103,47328.94558866667,-0.6182861328125,0.8015289306640625,0.0017242431640625
2015-04-16 19:56:21.400,104,47328.95530945834,-0.61920166015625,0.8014984130859375,0.003692626953125
2015-04-16 19:56:21.400,105,47328.96503041667,-0.6230926513671875,0.801483154296875,-0.004119873046875
2015-04-16 19:56:21.401,106,47328.97474979167,-0.628692626953125,0.79949951171875,0.0008544921875
2015-04-16 19:56:21.406,107,47328.98446820833,-0.6220550537109375,0.798614501953125,-0.0001678466796875
2015-04-16 19:56:21.419,108,47328.99418975,-0.6277618408203125,0.79571533203125,-0.0030670166015625
2015-04-16 19:56:21.425,109,47329.00390695834,-0.6202850341796875,0.8034210205078125,-0.0051422119140625
2015-04-16 19:56:21.436,110,47329.013682,-0.623046875,0.8024139404296875,-0.001190185546875
2015-04-16 19:56:21.446,111,47329.023347625,-0.62689208984375,0.800506591796875,-0.00701904296875
2015-04-16 19:56:21.456,112,47329.03317441667,-0.6287384033203125,0.797607421875,-0.0040435791015625
2015-04-16 19:56:21.499,113,47329.04278358334,-0.624908447265625,0.793853759765625,-0.003082275390625
2015-04-16 19:56:21.500,114,47329.05250229167,-0.62396240234375,0.796722412109375,-0.0021209716796875
2015-04-16 19:56:21.500,115,47329.06227195833,-0.626800537109375,0.7985687255859375,-0.0011138916015625
2015-04-16 19:56:21.501,116,47329.071949875,-0.6296234130859375,0.79473876953125,-0.0020599365234375
2015-04-16 19:56:21.504,117,47329.08166333334,-0.62957763671875,0.7947235107421875,0.001861572265625
2015-04-16 19:56:21.513,118,47329.09138679167,-0.6277008056640625,0.7947540283203125,0.0008697509765625
2015-04-16 19:56:21.523,119,47329.10121170834,-0.6315155029296875,0.7975616455078125,0.0009002685546875
2015-04-16 19:56:21.533,120,47329.11082875,-0.625823974609375,0.794769287109375,-0.0011138916015625
2015-04-16 19:56:21.543,121,47329.120651375,-0.6324615478515625,0.7956390380859375,-7.62939453125e-05
2015-04-16 19:56:21.552,122,47329.13026241667,-0.6258087158203125,0.794769287109375,0.0008544921875
2015-04-16 19:56:21.571,123,47329.13998070834,-0.628662109375,0.7966461181640625,0.0008697509765625
2015-04-16 19:56:21.600,124,47329.149702625,-0.6325225830078125,0.79376220703125,-0.004974365234375
2015-04-16 19:56:21.601,125,47329.15942508334,-0.629669189453125,0.7975921630859375,-0.0030517578125
2015-04-16 19:56:21.602,126,47329.16914408334,-0.6315155029296875,0.7985076904296875,-7.62939453125e-05
2015-04-16 19:56:21.602,127,47329.17886166667,-0.63153076171875,0.792816162109375,-0.003997802734375
2015-04-16 19:56:21.610,128,47329.18858641667,-0.6287078857421875,0.7947540283203125,-0.0040283203125
2015-04-16 19:56:21.621,129,47329.19830254167,-0.6305694580078125,0.793792724609375,-0.002044677734375
2015-04-16 19:56:21.632,130,47329.20812958333,-0.6314544677734375,0.7946929931640625,0.00286865234375
2015-04-16 19:56:21.639,131,47329.21776391667,-0.631500244140625,0.792816162109375,-0.0020294189453125
2015-04-16 19:56:21.648,132,47329.227456,-0.6315155029296875,0.7966156005859375,-0.001068115234375
2015-04-16 19:56:21.669,133,47329.237180375,-0.629638671875,0.795684814453125,-0.0020751953125
2015-04-16 19:56:21.695,134,47329.24689654167,-0.630523681640625,0.7937774658203125,0.0018768310546875
2015-04-16 19:56:21.696,135,47329.25662129167,-0.632476806640625,0.7909088134765625,-0.00299072265625
2015-04-16 19:56:21.697,136,47329.26633495834,-0.6295928955078125,0.78997802734375,-0.002044677734375
2015-04-16 19:56:21.701,137,47329.27605604167,-0.6324615478515625,0.7909088134765625,-0.00201416015625
2015-04-16 19:56:21.708,138,47329.28590408334,-0.6305389404296875,0.7937774658203125,-7.62939453125e-05
2015-04-16 19:56:21.719,139,47329.29549479167,-0.63720703125,0.792755126953125,-0.002960205078125
2015-04-16 19:56:21.727,140,47329.30521387501,-0.637176513671875,0.7927398681640625,-0.001007080078125
2015-04-16 19:56:21.737,141,47329.31504,-0.6381683349609375,0.794647216796875,-0.0029449462890625
2015-04-16 19:56:21.747,142,47329.32478333334,-0.629608154296875,0.7937774658203125,-0.0010833740234375
2015-04-16 19:56:21.769,143,47329.334365875,-0.6362762451171875,0.793731689453125,-0.002960205078125
2015-04-16 19:56:21.795,144,47329.34408812501,-0.632568359375,0.79852294921875,-0.0069580078125
2015-04-16 19:56:21.796,145,47329.35380958334,-0.6315155029296875,0.7947235107421875,-0.0020294189453125
2015-04-16 19:56:21.797,146,47329.36352933334,-0.630523681640625,0.792816162109375,0.0009002685546875
2015-04-16 19:56:21.797,147,47329.37324445834,-0.6305999755859375,0.793792724609375,-0.0040130615234375
2015-04-16 19:56:21.804,148,47329.38296708334,-0.632476806640625,0.796600341796875,-0.001068115234375
2015-04-16 19:56:21.815,149,47329.392688625,-0.6334381103515625,0.798492431640625,-0.0010528564453125
2015-04-16 19:56:21.824,150,47329.402512,-0.6324920654296875,0.795654296875,-0.002044677734375
2015-04-16 19:56:21.835,151,47329.41215645833,-0.6324462890625,0.7937469482421875,0.00091552734375
2015-04-16 19:56:21.845,152,47329.421950875,-0.6314849853515625,0.7928009033203125,-0.0010528564453125
2015-04-16 19:56:21.854,153,47329.43156095834,-0.6324462890625,0.7946929931640625,0.00091552734375
2015-04-16 19:56:21.869,154,47329.44127870833,-0.6305999755859375,0.7985382080078125,-0.0020599365234375
2015-04-16 19:56:21.894,155,47329.45100175,-0.631500244140625,0.7975616455078125,0.0018768310546875
2015-04-16 19:56:21.894,156,47329.46071983334,-0.63433837890625,0.793731689453125,0.0009307861328125
2015-04-16 19:56:21.895,157,47329.47043991667,-0.630584716796875,0.7966461181640625,-0.0020599365234375
2015-04-16 19:56:21.901,158,47329.480176625,-0.6296539306640625,0.7975921630859375,-0.0020751953125
2015-04-16 19:56:21.912,159,47329.48987216667,-0.6278076171875,0.80047607421875,-0.0040740966796875
2015-04-16 19:56:21.922,160,47329.49958770833,-0.6315765380859375,0.802337646484375,-0.0020751953125
2015-04-16 19:56:21.932,161,47329.50931504167,-0.6268768310546875,0.80145263671875,-0.0040740966796875
2015-04-16 19:56:21.943,162,47329.52096920834,-0.63055419921875,0.797576904296875,0.001861572265625
2015-04-16 19:56:21.952,163,47329.53069008334,-0.62591552734375,0.797637939453125,-0.0050506591796875
2015-04-16 19:56:21.969,164,47329.54041062501,-0.6287078857421875,0.797607421875,-0.0020751953125
2015-04-16 19:56:21.994,165,47329.55013020834,-0.6268768310546875,0.80145263671875,-0.0040740966796875
2015-04-16 19:56:21.995,166,47329.55984712501,-0.631561279296875,0.8004302978515625,-0.0020599365234375
2015-04-16 19:56:21.996,167,47329.56956591667,-0.6240234375,0.7995758056640625,-0.0041046142578125
2015-04-16 19:56:22.001,168,47329.57928300001,-0.629608154296875,0.796630859375,0.0008697509765625
2015-04-16 19:56:22.011,169,47329.58901170833,-0.6277923583984375,0.8014373779296875,-0.002105712890625
2015-04-16 19:56:22.021,170,47329.59872437501,-0.62591552734375,0.8004913330078125,-0.00408935546875
2015-04-16 19:56:22.031,171,47329.60844183333,-0.6239776611328125,0.796722412109375,-0.0030975341796875
2015-04-16 19:56:22.040,172,47329.61827075,-0.627716064453125,0.796661376953125,-0.0001220703125
2015-04-16 19:56:22.049,173,47329.62787979167,-0.6230621337890625,0.80242919921875,-0.002166748046875
2015-04-16 19:56:22.070,174,47329.63760270834,-0.6277923583984375,0.8042755126953125,-0.0011444091796875
2015-04-16 19:56:22.094,175,47329.64731791667,-0.6268463134765625,0.80145263671875,-0.002105712890625
2015-04-16 19:56:22.094,176,47329.65704033334,-0.6221160888671875,0.7976837158203125,-0.0041046142578125
2015-04-16 19:56:22.095,177,47329.66676125,-0.6211395263671875,0.797698974609375,-0.0021514892578125
2015-04-16 19:56:22.098,178,47329.67647595834,-0.6258697509765625,0.8014373779296875,-0.000152587890625
2015-04-16 19:56:22.108,179,47329.68630858334,-0.6268463134765625,0.802398681640625,-0.0021209716796875
2015-04-16 19:56:22.117,180,47329.69592345833,-0.6249542236328125,0.8043060302734375,-0.0011749267578125
2015-04-16 19:56:22.127,181,47329.70564129167,-0.6277923583984375,0.8014373779296875,-0.002105712890625
2015-04-16 19:56:22.137,182,47329.71536004167,-0.62310791015625,0.7986297607421875,-0.008026123046875
2015-04-16 19:56:22.149,183,47329.72523466667,-0.6277923583984375,0.80047607421875,-0.003082275390625
2015-04-16 19:56:22.175,184,47329.73480045833,-0.622100830078125,0.8043365478515625,-0.0001983642578125
2015-04-16 19:56:22.204,185,47329.74646066667,-0.6220550537109375,0.7995758056640625,0.00177001953125
2015-04-16 19:56:22.204,186,47329.75618075,-0.6192626953125,0.800567626953125,-0.0021820068359375
2015-04-16 19:56:22.205,187,47329.76590129167,-0.6268768310546875,0.8061981201171875,-0.00213623046875
2015-04-16 19:56:22.205,188,47329.775617625,-0.6268310546875,0.804290771484375,-0.000152587890625
2015-04-16 19:56:22.206,189,47329.78534129167,-0.6287078857421875,0.797607421875,-0.0020751953125
2015-04-16 19:56:22.216,190,47329.79506400001,-0.6212005615234375,0.79962158203125,-0.0060882568359375
2015-04-16 19:56:22.227,191,47329.80488754167,-0.620269775390625,0.80438232421875,-0.0041656494140625
2015-04-16 19:56:22.236,192,47329.8145105,-0.6248779296875,0.797637939453125,0.001800537109375
2015-04-16 19:56:22.247,193,47329.82421729167,-0.623077392578125,0.801483154296875,-0.0031280517578125
2015-04-16 19:56:22.272,194,47329.83404866667,-0.62115478515625,0.8014984130859375,-0.001190185546875
2015-04-16 19:56:22.302,195,47329.84365716667,-0.6211700439453125,0.7957916259765625,-0.005096435546875
2015-04-16 19:56:22.302,196,47329.85337804167,-0.62310791015625,0.801483154296875,-0.005096435546875
2015-04-16 19:56:22.303,197,47329.86309841667,-0.622161865234375,0.8052978515625,-0.0031585693359375
2015-04-16 19:56:22.304,198,47329.87282441667,-0.6277923583984375,0.803314208984375,-0.0011444091796875
2015-04-16 19:56:22.304,199,47329.88253991667,-0.62493896484375,0.7985992431640625,-0.0030975341796875
2015-04-16 19:56:22.315,200,47329.89226225,-0.62396240234375,0.7976531982421875,-0.0011444091796875
2015-04-16 19:56:22.324,201,47329.901984375,-0.620269775390625,0.8015289306640625,-0.005126953125
2015-04-16 19:56:22.334,202,47329.91170212501,-0.625,0.80621337890625,-0.003143310546875
2015-04-16 19:56:22.344,203,47329.9215305,-0.6221466064453125,0.800537109375,-0.005096435546875
2015-04-16 19:56:22.353,204,47329.93125341667,-0.6220855712890625,0.801483154296875,-0.00018310546875
2015-04-16 19:56:22.399,205,47329.94085904167,-0.6182861328125,0.79962158203125,-0.0002288818359375
2015-04-16 19:56:22.399,206,47329.95057995833,-0.620208740234375,0.800567626953125,-0.0021820068359375
2015-04-16 19:56:22.400,207,47329.96030333333,-0.6269073486328125,0.7985992431640625,-0.00897216796875
2015-04-16 19:56:22.401,208,47329.97002083334,-0.6278533935546875,0.806182861328125,-0.0041046142578125
2015-04-16 19:56:22.401,209,47329.97974433334,-0.621185302734375,0.8005523681640625,-0.0041351318359375
2015-04-16 19:56:22.412,210,47329.98956995834,-0.6258544921875,0.7976226806640625,-0.001129150390625
2015-04-16 19:56:22.421,211,47329.99926879167,-0.6268463134765625,0.798583984375,-0.004058837890625
2015-04-16 19:56:22.431,212,47330.00890362501,-0.6296844482421875,0.79949951171875,-0.0030670166015625
2015-04-16 19:56:22.443,213,47330.020569375,-0.6268310546875,0.8014373779296875,-0.001129150390625
2015-04-16 19:56:22.451,214,47330.03028595834,-0.6230621337890625,0.7995758056640625,-0.0031280517578125
2015-04-16 19:56:22.496,215,47330.04000691667,-0.6202239990234375,0.8024749755859375,-0.002197265625
2015-04-16 19:56:22.497,216,47330.04972279167,-0.62774658203125,0.7995147705078125,-0.0001373291015625
2015-04-16 19:56:22.498,217,47330.05944545833,-0.624969482421875,0.8014678955078125,-0.00311279296875
2015-04-16 19:56:22.498,218,47330.069165,-0.6249237060546875,0.7995452880859375,-0.00115966796875
2015-04-16 19:56:22.502,219,47330.07888654167,-0.6258544921875,0.7985687255859375,-0.001129150390625
2015-04-16 19:56:22.510,220,47330.08860341667,-0.6278076171875,0.8033294677734375,-0.0021209716796875
2015-04-16 19:56:22.521,221,47330.09837058334,-0.6277923583984375,0.7966766357421875,-0.005035400390625
2015-04-16 19:56:22.530,222,47330.10815829167,-0.6258697509765625,0.79669189453125,-0.003082275390625
2015-04-16 19:56:22.540,223,47330.11788041667,-0.6268310546875,0.79669189453125,-0.004058837890625
2015-04-16 19:56:22.550,224,47330.12748783334,-0.6239471435546875,0.7985992431640625,-0.000152587890625
2015-04-16 19:56:22.593,225,47330.13720941667,-0.6277313232421875,0.798553466796875,-0.0001220703125
2015-04-16 19:56:22.593,226,47330.14692758334,-0.624969482421875,0.800506591796875,-0.0041046142578125
2015-04-16 19:56:22.594,227,47330.15664945834,-0.6287384033203125,0.7995147705078125,-0.0030670166015625
2015-04-16 19:56:22.594,228,47330.16637187501,-0.626739501953125,0.7909698486328125,-9.1552734375e-05
2015-04-16 19:56:22.597,229,47330.176090125,-0.626800537109375,0.7976226806640625,-0.0011138916015625
2015-04-16 19:56:22.609,230,47330.18581050001,-0.629638671875,0.79852294921875,-0.0010986328125
2015-04-16 19:56:22.617,231,47330.19553200001,-0.6334381103515625,0.7994537353515625,-7.62939453125e-05
2015-04-16 19:56:22.627,232,47330.20526,-0.625885009765625,0.79669189453125,-0.0040740966796875
2015-04-16 19:56:22.637,233,47330.21508208333,-0.625823974609375,0.794769287109375,-0.0011138916015625
2015-04-16 19:56:22.647,234,47330.22479916667,-0.6258087158203125,0.79571533203125,0.0018157958984375
2015-04-16 19:56:22.673,235,47330.23441666667,-0.6258544921875,0.8014373779296875,0.001800537109375
2015-04-16 19:56:22.702,236,47330.24413108334,-0.6287384033203125,0.7957000732421875,-0.0050201416015625
2015-04-16 19:56:22.702,237,47330.25384816667,-0.6325225830078125,0.7985076904296875,-0.003021240234375
2015-04-16 19:56:22.703,238,47330.26356991667,-0.6277618408203125,0.7966766357421875,-0.0030670166015625
2015-04-16 19:56:22.703,239,47330.27329179167,-0.6278076171875,0.797637939453125,-0.006011962890625
2015-04-16 19:56:22.704,240,47330.28300883334,-0.6249237060546875,0.793853759765625,-0.0040740966796875
2015-04-16 19:56:22.714,241,47330.292732125,-0.63055419921875,0.8013763427734375,0.0037994384765625
2015-04-16 19:56:22.724,242,47330.302457875,-0.630584716796875,0.8004302978515625,0.0008697509765625
2015-04-16 19:56:22.735,243,47330.312303125,-0.628662109375,0.795684814453125,-0.0001068115234375
2015-04-16 19:56:22.743,244,47330.32193420834,-0.6258087158203125,0.7938232421875,-0.0001220703125
2015-04-16 19:56:22.754,245,47330.33171504167,-0.626739501953125,0.794769287109375,0.0018463134765625
2015-04-16 19:56:22.799,246,47330.341322125,-0.6267852783203125,0.7985687255859375,0.0008544921875
2015-04-16 19:56:22.799,247,47330.35104691667,-0.6267852783203125,0.7985687255859375,0.0008544921875
2015-04-16 19:56:22.800,248,47330.36076275,-0.6306304931640625,0.7985382080078125,-0.0040283203125
2015-04-16 19:56:22.800,249,47330.370484125,-0.6286773681640625,0.7975921630859375,0.0008697509765625
2015-04-16 19:56:22.801,250,47330.38019891667,-0.6305999755859375,0.7975921630859375,-0.0020599365234375
2015-04-16 19:56:22.812,251,47330.38997433334,-0.6277923583984375,0.7985687255859375,-0.004058837890625
2015-04-16 19:56:22.823,252,47330.399660125,-0.6296844482421875,0.7975921630859375,-0.0040435791015625
2015-04-16 19:56:22.831,253,47330.40935783333,-0.6306304931640625,0.79949951171875,-0.0030517578125
2015-04-16 19:56:22.842,254,47330.41918183333,-0.6287384033203125,0.7957000732421875,-0.0050201416015625
2015-04-16 19:56:22.851,255,47330.428791375,-0.6286773681640625,0.7975921630859375,-0.0001068115234375
2015-04-16 19:56:22.870,256,47330.43851041667,-0.6277618408203125,0.8004608154296875,-0.001129150390625
2015-04-16 19:56:22.899,257,47330.44822641667,-0.628753662109375,0.7995147705078125,-0.004058837890625
2015-04-16 19:56:22.900,258,47330.45795004167,-0.62677001953125,0.7966766357421875,-0.0001220703125
2015-04-16 19:56:22.900,259,47330.46766783333,-0.6268310546875,0.79669189453125,-0.004058837890625
2015-04-16 19:56:22.901,260,47330.47738925,-0.629608154296875,0.8004150390625,0.0028076171875
2015-04-16 19:56:22.909,261,47330.4871085,-0.6296539306640625,0.7985382080078125,-0.0020751953125
2015-04-16 19:56:22.920,262,47330.498764625,-0.6267852783203125,0.7947845458984375,-0.0020751953125
2015-04-16 19:56:22.930,263,47330.50848691667,-0.6259002685546875,0.7957305908203125,-0.0050506591796875
2015-04-16 19:56:22.940,264,47330.51831625,-0.6296539306640625,0.802337646484375,0.0008392333984375
2015-04-16 19:56:22.950,265,47330.52803454167,-0.6315155029296875,0.7975616455078125,-7.62939453125e-05
2015-04-16 19:56:22.972,266,47330.53764608334,-0.62298583984375,0.7967071533203125,0.0008087158203125
2015-04-16 19:56:22.999,267,47330.54736020834,-0.6259307861328125,0.7985992431640625,-0.00701904296875
2015-04-16 19:56:23.000,268,47330.55708254167,-0.6286773681640625,0.7975921630859375,-0.0001068115234375
2015-04-16 19:56:23.001,269,47330.56680145834,-0.62689208984375,0.80145263671875,-0.0050506591796875
2015-04-16 19:56:23.001,270,47330.576522125,-0.6287384033203125,0.7995147705078125,-0.0030670166015625
2015-04-16 19:56:23.008,271,47330.58636829167,-0.6249542236328125,0.7985992431640625,-0.00408935546875
2015-04-16 19:56:23.018,272,47330.59610108333,-0.624908447265625,0.7995452880859375,0.0008087158203125
2015-04-16 19:56:23.028,273,47330.60580904167,-0.623016357421875,0.7976531982421875,-0.00115966796875
2015-04-16 19:56:23.037,274,47330.61539754167,-0.6287078857421875,0.800445556640625,-0.0011138916015625
2015-04-16 19:56:23.048,275,47330.62526425,-0.6305694580078125,0.79852294921875,-9.1552734375e-05
2015-04-16 19:56:23.070,276,47330.63494729167,-0.62200927734375,0.7976531982421875,0.0037384033203125
2015-04-16 19:56:23.099,277,47330.644554625,-0.6220855712890625,0.7976837158203125,-0.00213623046875
2015-04-16 19:56:23.101,278,47330.65427804167,-0.6229400634765625,0.798583984375,0.0047149658203125
2015-04-16 19:56:23.102,279,47330.66399345834,-0.62493896484375,0.799560546875,-0.00213623046875
2015-04-16 19:56:23.102,280,47330.67371795834,-0.62774658203125,0.80426025390625,0.002777099609375
2015-04-16 19:56:23.105,281,47330.68343308334,-0.6258697509765625,0.799530029296875,-0.0011444091796875
2015-04-16 19:56:23.119,282,47330.69509791667,-0.62872314453125,0.796661376953125,-0.0040435791015625
2015-04-16 19:56:23.126,283,47330.70481791667,-0.6240386962890625,0.8005218505859375,-0.0050811767578125
2015-04-16 19:56:23.136,284,47330.71453704167,-0.6286773681640625,0.7966461181640625,-0.0010986328125
2015-04-16 19:56:23.146,285,47330.724256875,-0.622100830078125,0.800537109375,-0.0021514892578125
2015-04-16 19:56:23.155,286,47330.73397520834,-0.6268463134765625,0.797637939453125,-0.004058837890625
2015-04-16 19:56:23.179,287,47330.743701375,-0.62396240234375,0.800506591796875,-0.0001678466796875
2015-04-16 19:56:23.209,288,47330.75341595834,-0.626861572265625,0.7985992431640625,-0.006011962890625
2015-04-16 19:56:23.210,289,47330.76313408334,-0.6258697509765625,0.799530029296875,-0.0011444091796875
2015-04-16 19:56:23.210,290,47330.77285445834,-0.6295928955078125,0.8004150390625,0.0037841796875
2015-04-16 19:56:23.211,291,47330.78257491667,-0.623016357421875,0.799560546875,0.00079345703125
2015-04-16 19:56:23.214,292,47330.79229112501,-0.623046875,0.8005218505859375,-0.0021514892578125
2015-04-16 19:56:23.224,293,47330.80201225,-0.6248931884765625,0.797637939453125,-0.000152587890625
2015-04-16 19:56:23.233,294,47330.81173133334,-0.6240386962890625,0.801483154296875,-0.0041046142578125
2015-04-16 19:56:23.244,295,47330.82156591667,-0.623992919921875,0.8014678955078125,-0.00115966796875
2015-04-16 19:56:23.253,296,47330.83116975,-0.623931884765625,0.7947998046875,-0.001129150390625
2015-04-16 19:56:23.269,297,47330.84089187501,-0.6239471435546875,0.7976531982421875,-0.000152587890625
2015-04-16 19:56:23.297,298,47330.85061229167,-0.6219940185546875,0.7967071533203125,0.0037384033203125
2015-04-16 19:56:23.298,299,47330.86033025001,-0.6287384033203125,0.801422119140625,-0.0020904541015625
2015-04-16 19:56:23.298,300,47330.87005379167,-0.6268310546875,0.8014373779296875,-0.001129150390625
2015-04-16 19:56:23.302,301,47330.87977458334,-0.6249847412109375,0.8014678955078125,-0.0041046142578125
2015-04-16 19:56:23.312,302,47330.889602,-0.62591552734375,0.7995452880859375,-0.00408935546875
2015-04-16 19:56:23.321,303,47330.89921308334,-0.62493896484375,0.8033447265625,0.00079345703125
2015-04-16 19:56:23.332,304,47330.90893433333,-0.6249237060546875,0.7976531982421875,-0.0021209716796875
2015-04-16 19:56:23.341,305,47330.91865758334,-0.6249237060546875,0.7995452880859375,-0.00115966796875
2015-04-16 19:56:23.350,306,47330.928376625,-0.6248321533203125,0.7976226806640625,0.004730224609375
2015-04-16 19:56:23.368,307,47330.93809158334,-0.62591552734375,0.802398681640625,-0.00311279296875
2015-04-16 19:56:23.399,308,47330.947812625,-0.6268463134765625,0.8033294677734375,-0.0011444091796875
2015-04-16 19:56:23.399,309,47330.95754095833,-0.6220855712890625,0.801483154296875,-0.00018310546875
2015-04-16 19:56:23.400,310,47330.9672575,-0.6259002685546875,0.802398681640625,-0.00213623046875
2015-04-16 19:56:23.401,311,47330.97697325001,-0.6230316162109375,0.798614501953125,-0.00213623046875
2015-04-16 19:56:23.409,312,47330.986804125,-0.62591552734375,0.802398681640625,-0.00311279296875
2015-04-16 19:56:23.418,313,47330.99641241667,-0.63153076171875,0.8004150390625,-9.1552734375e-05
2015-04-16 19:56:23.429,314,47331.00624379167,-0.6239776611328125,0.800506591796875,-0.00115966796875
2015-04-16 19:56:23.438,315,47331.015865,-0.625,0.8005218505859375,-0.007049560546875
2015-04-16 19:56:23.447,316,47331.02557425,-0.6277313232421875,0.798553466796875,0.0008544921875
2015-04-16 19:56:23.470,317,47331.035402,-0.62689208984375,0.8033447265625,-0.00408935546875
2015-04-16 19:56:23.498,318,47331.04501225,-0.6306304931640625,0.7985382080078125,-0.0040283203125
2015-04-16 19:56:23.498,319,47331.05473479167,-0.623992919921875,0.798614501953125,-0.0030975341796875
2015-04-16 19:56:23.499,320,47331.06445025,-0.6248931884765625,0.798583984375,0.000823974609375
2015-04-16 19:56:23.501,321,47331.07416945833,-0.629638671875,0.8013916015625,0.0018310546875
2015-04-16 19:56:23.505,322,47331.08389391667,-0.6297149658203125,0.79949951171875,-0.005035400390625
2015-04-16 19:56:23.515,323,47331.09361254167,-0.6258697509765625,0.799530029296875,-0.0011444091796875
2015-04-16 19:56:23.525,324,47331.10347241667,-0.6230316162109375,0.798614501953125,-0.00213623046875
2015-04-16 19:56:23.535,325,47331.11316250001,-0.6220703125,0.7995758056640625,-0.00018310546875
2015-04-16 19:56:23.544,326,47331.12277354167,-0.6230316162109375,0.79766845703125,-0.00213623046875
2015-04-16 19:56:23.571,327,47331.1325985,-0.625885009765625,0.797637939453125,-0.003082275390625
2015-04-16 19:56:23.598,328,47331.14220891667,-0.6286773681640625,0.7985382080078125,-0.0001068115234375
2015-04-16 19:56:23.599,329,47331.15193162501,-0.6267852783203125,0.7985687255859375,0.0008544921875
2015-04-16 19:56:23.599,330,47331.16164820833,-0.6230926513671875,0.8005218505859375,-0.005096435546875
2015-04-16 19:56:23.600,331,47331.17137070833,-0.6249542236328125,0.799560546875,-0.00311279296875
2015-04-16 19:56:23.603,332,47331.18108812501,-0.627777099609375,0.799530029296875,-0.002105712890625
2015-04-16 19:56:23.612,333,47331.19080733334,-0.62591552734375,0.797637939453125,-0.0050506591796875
2015-04-16 19:56:23.623,334,47331.20074470834,-0.628662109375,0.7985382080078125,0.0018463134765625
2015-04-16 19:56:23.632,335,47331.21024704167,-0.63153076171875,0.799468994140625,-9.1552734375e-05
2015-04-16 19:56:23.643,336,47331.22007600001,-0.6230621337890625,0.796722412109375,-0.0050811767578125
2015-04-16 19:56:23.652,337,47331.2297955,-0.623992919921875,0.7995758056640625,-0.00213623046875
2015-04-16 19:56:23.704,338,47331.23940233333,-0.629608154296875,0.797576904296875,0.0018463134765625
2015-04-16 19:56:23.704,339,47331.249118125,-0.6249237060546875,0.795745849609375,-0.0030975341796875
2015-04-16 19:56:23.705,340,47331.25883808333,-0.6259002685546875,0.7967071533203125,-0.0060272216796875
2015-04-16 19:56:23.705,341,47331.26855733334,-0.6248779296875,0.79669189453125,-0.000152587890625
2015-04-16 19:56:23.706,342,47331.27827629167,-0.6268157958984375,0.7947845458984375,-0.0040435791015625
2015-04-16 19:56:23.711,343,47331.28807875,-0.6259002685546875,0.7995452880859375,-0.0030975341796875
2015-04-16 19:56:23.719,344,47331.29771729167,-0.629669189453125,0.79949951171875,-0.0020904541015625
2015-04-16 19:56:23.729,345,47331.30754116667,-0.6248931884765625,0.797637939453125,-0.000152587890625
2015-04-16 19:56:23.739,346,47331.31726145834,-0.6248931884765625,0.79669189453125,-0.0011444091796875
2015-04-16 19:56:23.748,347,47331.32687170833,-0.627716064453125,0.796661376953125,-0.0001220703125
2015-04-16 19:56:23.797,348,47331.33659095834,-0.6268768310546875,0.799560546875,-0.0060272216796875
2015-04-16 19:56:23.797,349,47331.346307375,-0.6268157958984375,0.8014373779296875,0.0008392333984375
2015-04-16 19:56:23.801,350,47331.35602925,-0.6268157958984375,0.80047607421875,-0.001129150390625
2015-04-16 19:56:23.802,351,47331.36574875,-0.6258544921875,0.79669189453125,-0.002105712890625
2015-04-16 19:56:23.803,352,47331.37546458334,-0.6239166259765625,0.7967071533203125,0.001800537109375
2015-04-16 19:56:23.808,353,47331.3852985,-0.6296234130859375,0.79852294921875,-0.0001068115234375
2015-04-16 19:56:23.818,354,47331.39490829167,-0.6287384033203125,0.798553466796875,-0.0040435791015625
2015-04-16 19:56:23.830,355,47331.40468608333,-0.628692626953125,0.800445556640625,0.0008544921875
2015-04-16 19:56:23.830,356,47331.41442108333,-0.6296234130859375,0.797576904296875,0.0008697509765625
2015-04-16 19:56:23.841,357,47331.42418008333,-0.628692626953125,0.7928466796875,-0.0040283203125
2015-04-16 19:56:23.850,358,47331.433791,-0.6287078857421875,0.7957000732421875,-0.0030517578125
2015-04-16 19:56:23.892,359,47331.443507875,-0.630584716796875,0.8004302978515625,-0.0001068115234375
2015-04-16 19:56:23.893,360,47331.4532255,-0.629638671875,0.79852294921875,-0.0010986328125
2015-04-16 19:56:23.893,361,47331.462944125,-0.6192779541015625,0.795806884765625,-0.0051116943359375
2015-04-16 19:56:23.894,362,47331.47266908333,-0.6268463134765625,0.7967071533203125,-0.006011962890625
2015-04-16 19:56:23.900,363,47331.48240808334,-0.6315460205078125,0.7956695556640625,-0.003021240234375
2015-04-16 19:56:23.908,364,47331.49210433334,-0.624908447265625,0.7995452880859375,-0.0001678466796875
2015-04-16 19:56:23.918,365,47331.50194208333,-0.629638671875,0.8004302978515625,-0.0001220703125
2015-04-16 19:56:23.928,366,47331.51165395834,-0.6286773681640625,0.800445556640625,0.0018310546875
2015-04-16 19:56:23.938,367,47331.52126516667,-0.6249237060546875,0.7985992431640625,-0.0021209716796875
2015-04-16 19:56:23.948,368,47331.53111858333,-0.6286773681640625,0.79949951171875,0.0018310546875
2015-04-16 19:56:23.995,369,47331.54070020834,-0.6296844482421875,0.7985382080078125,-0.0040435791015625
2015-04-16 19:56:23.995,370,47331.55041666667,-0.626800537109375,0.799530029296875,0.0008392333984375
2015-04-16 19:56:23.996,371,47331.56013791667,-0.6306610107421875,0.7995147705078125,-0.0059967041015625
2015-04-16 19:56:23.996,372,47331.56985845834,-0.6220855712890625,0.7976837158203125,-0.00213623046875
2015-04-16 19:56:23.998,373,47331.579576,-0.62872314453125,0.8014068603515625,-0.0011138916015625
2015-04-16 19:56:24.006,374,47331.58940445833,-0.6240386962890625,0.800537109375,-0.0060577392578125
2015-04-16 19:56:24.017,375,47331.59901895834,-0.6258544921875,0.8014373779296875,0.001800537109375
2015-04-16 19:56:24.026,376,47331.60873470834,-0.626800537109375,0.80047607421875,0.0008392333984375
2015-04-16 19:56:24.036,377,47331.61845383333,-0.6277618408203125,0.801422119140625,-0.0001373291015625
2015-04-16 19:56:24.046,378,47331.628280875,-0.624969482421875,0.8052520751953125,-0.001190185546875
2015-04-16 19:56:24.070,379,47331.63801354167,-0.6277313232421875,0.797607421875,0.0008544921875
2015-04-16 19:56:24.095,380,47331.64766833334,-0.632598876953125,0.802337646484375,-0.006988525390625
2015-04-16 19:56:24.096,381,47331.65733220833,-0.627838134765625,0.806182861328125,-0.00311279296875
2015-04-16 19:56:24.096,382,47331.66704975,-0.6278076171875,0.8023834228515625,-0.0030975341796875
2015-04-16 19:56:24.097,383,47331.67677066667,-0.6183013916015625,0.7958221435546875,-0.0031585693359375
2015-04-16 19:56:24.104,384,47331.6865025,-0.624908447265625,0.8004913330078125,-0.0001678466796875
2015-04-16 19:56:24.114,385,47331.69620854167,-0.62017822265625,0.8005523681640625,-0.000213623046875
2015-04-16 19:56:24.124,386,47331.70592841667,-0.631500244140625,0.801361083984375,0.003814697265625
2015-04-16 19:56:24.134,387,47331.71564591667,-0.6277008056640625,0.7947540283203125,-0.0001068115234375
2015-04-16 19:56:24.143,388,47331.7253625,-0.627716064453125,0.7938079833984375,-0.0010986328125
2015-04-16 19:56:24.154,389,47331.735201125,-0.621185302734375,0.79864501953125,-0.005096435546875
2015-04-16 19:56:24.181,390,47331.74480058334,-0.6306304931640625,0.800445556640625,-0.0030517578125
2015-04-16 19:56:24.207,391,47331.75451979167,-0.629791259765625,0.808074951171875,-0.007049560546875
2015-04-16 19:56:24.208,392,47331.76424075,-0.633544921875,0.806121826171875,-0.0040435791015625
2015-04-16 19:56:24.208,393,47331.773958375,-0.6258544921875,0.7976226806640625,-0.001129150390625
2015-04-16 19:56:24.208,394,47331.78367895834,-0.6248626708984375,0.7947845458984375,-0.0001373291015625
2015-04-16 19:56:24.212,395,47331.79339891667,-0.6277618408203125,0.79571533203125,-0.0030670166015625
2015-04-16 19:56:24.221,396,47331.80311625,-0.6343841552734375,0.8060760498046875,0.0037994384765625
2015-04-16 19:56:24.231,397,47331.81283879167,-0.633453369140625,0.8003997802734375,-0.001068115234375
2015-04-16 19:56:24.242,398,47331.82255816667,-0.6248626708984375,0.7947845458984375,-0.0001373291015625
2015-04-16 19:56:24.253,399,47331.83232158334,-0.6277618408203125,0.79571533203125,-0.0030670166015625
2015-04-16 19:56:24.270,400,47331.84199775,-0.6343841552734375,0.8060760498046875,0.0037994384765625
2015-04-16 19:56:24.296,401,47331.851714125,-0.633453369140625,0.8003997802734375,-0.001068115234375
2015-04-16 19:56:24.297,402,47331.86143666667,-0.6296234130859375,0.79852294921875,-0.0001068115234375
2015-04-16 19:56:24.297,403,47331.87116191667,-0.62109375,0.7967376708984375,-0.00018310546875
2015-04-16 19:56:24.302,404,47331.88087766667,-0.6220855712890625,0.8005218505859375,-0.0011749267578125
2015-04-16 19:56:24.311,405,47331.890594375,-0.632476806640625,0.79754638671875,-7.62939453125e-05
2015-04-16 19:56:24.320,406,47331.90031416667,-0.63714599609375,0.800323486328125,0.006805419921875
2015-04-16 19:56:24.331,407,47331.91014520833,-0.628662109375,0.7975921630859375,0.0018463134765625
2015-04-16 19:56:24.340,408,47331.91980208334,-0.6277008056640625,0.7957000732421875,0.0018310546875
2015-04-16 19:56:24.349,409,47331.92947458334,-0.633514404296875,0.797576904296875,-0.0069427490234375
2015-04-16 19:56:24.370,410,47331.93919325,-0.629669189453125,0.7975921630859375,-0.0030517578125
2015-04-16 19:56:24.394,411,47331.94890733334,-0.630584716796875,0.793792724609375,-0.003021240234375
2015-04-16 19:56:24.395,412,47331.958629375,-0.6267547607421875,0.7938232421875,-0.0001068115234375
2015-04-16 19:56:24.396,413,47331.968349125,-0.631591796875,0.7966461181640625,-0.0069580078125
2015-04-16 19:56:24.398,414,47331.97806820834,-0.62396240234375,0.791015625,-0.004058837890625
2015-04-16 19:56:24.408,415,47331.98789925,-0.6267547607421875,0.7909698486328125,-0.0010833740234375
2015-04-16 19:56:24.417,416,47331.99751070834,-0.624908447265625,0.7862548828125,-0.007965087890625
2015-04-16 19:56:24.427,417,47332.00733858334,-0.63153076171875,0.7975616455078125,-0.001068115234375
2015-04-16 19:56:24.439,418,47332.017055125,-0.6314697265625,0.7928009033203125,0.00091552734375
2015-04-16 19:56:24.449,419,47332.02666420834,-0.6371612548828125,0.789886474609375,-0.0009918212890625
2015-04-16 19:56:24.469,420,47332.03638691667,-0.628570556640625,0.787109375,0.00286865234375
2015-04-16 19:56:24.495,421,47332.04610204167,-0.635284423828125,0.7946624755859375,0.000946044921875
2015-04-16 19:56:24.496,422,47332.05582437501,-0.6371307373046875,0.789886474609375,0.001953125
2015-04-16 19:56:24.497,423,47332.06554229167,-0.6362762451171875,0.7927703857421875,-0.0039520263671875
2015-04-16 19:56:24.498,424,47332.07526070833,-0.6305389404296875,0.790924072265625,-0.0010528564453125
2015-04-16 19:56:24.507,425,47332.08509520833,-0.6316070556640625,0.7899932861328125,-0.0118408203125
2015-04-16 19:56:24.516,426,47332.094702375,-0.6315460205078125,0.789031982421875,-0.0069122314453125
2015-04-16 19:56:24.527,427,47332.10442770833,-0.6334381103515625,0.794708251953125,-0.00299072265625
2015-04-16 19:56:24.536,428,47332.11425741667,-0.635284423828125,0.790863037109375,-0.001007080078125
2015-04-16 19:56:24.546,429,47332.123863375,-0.6409759521484375,0.78509521484375,-0.0048370361328125
2015-04-16 19:56:24.567,430,47332.13358320834,-0.638031005859375,0.7860565185546875,0.002960205078125
2015-04-16 19:56:24.593,431,47332.14329808333,-0.636199951171875,0.7889556884765625,1.52587890625e-05
2015-04-16 19:56:24.594,432,47332.15302041667,-0.636199951171875,0.792755126953125,0.0019378662109375
2015-04-16 19:56:24.595,433,47332.162741375,-0.63421630859375,0.789886474609375,0.0078125
2015-04-16 19:56:24.595,434,47332.17245991667,-0.635101318359375,0.78607177734375,0.009796142578125
2015-04-16 19:56:24.605,435,47332.182299375,-0.632354736328125,0.7832794189453125,0.0019378662109375
2015-04-16 19:56:24.615,436,47332.19203566667,-0.6389617919921875,0.7831878662109375,0.0029754638671875
2015-04-16 19:56:24.626,437,47332.20367129167,-0.6389617919921875,0.789825439453125,0.006866455078125
2015-04-16 19:56:24.635,438,47332.21328058334,-0.64666748046875,0.797393798828125,0.00103759765625
2015-04-16 19:56:24.645,439,47332.223003625,-0.6455230712890625,0.7840423583984375,0.007965087890625
2015-04-16 19:56:24.655,440,47332.23272391667,-0.63714599609375,0.787994384765625,-0.0009765625
2015-04-16 19:56:24.696,441,47332.242437375,-0.639984130859375,0.7841644287109375,-0.0028839111328125
2015-04-16 19:56:24.696,442,47332.25215970834,-0.644805908203125,0.79266357421875,-0.004852294921875
2015-04-16 19:56:24.697,443,47332.26187808334,-0.642791748046875,0.7869720458984375,0.0020294189453125
2015-04-16 19:56:24.698,444,47332.27160033333,-0.6371917724609375,0.7889556884765625,-0.0029296875
2015-04-16 19:56:24.702,445,47332.28132491667,-0.6400299072265625,0.7879791259765625,-0.0038909912109375
2015-04-16 19:56:24.714,446,47332.29108829167,-0.6504669189453125,0.789764404296875,-0.0057525634765625
2015-04-16 19:56:24.723,447,47332.300863375,-0.63623046875,0.78515625,-0.00390625
2015-04-16 19:56:24.732,448,47332.31047820834,-0.6428985595703125,0.7888946533203125,-0.0048370361328125
2015-04-16 19:56:24.742,449,47332.320305375,-0.6399383544921875,0.7822418212890625,-0.00091552734375
2015-04-16 19:56:24.752,450,47332.32991429167,-0.634246826171875,0.7851409912109375,0.0029296875
2015-04-16 19:56:24.798,451,47332.33963366667,-0.6390533447265625,0.7927093505859375,0.0009765625
2015-04-16 19:56:24.798,452,47332.34935141667,-0.6390380859375,0.78985595703125,1.52587890625e-05
2015-04-16 19:56:24.799,453,47332.35907291667,-0.6437835693359375,0.791717529296875,0.00103759765625
2015-04-16 19:56:24.800,454,47332.36879637501,-0.6361846923828125,0.7899017333984375,0.001953125
2015-04-16 19:56:24.800,455,47332.37851145834,-0.636199951171875,0.7861175537109375,-0.001953125
2015-04-16 19:56:24.811,456,47332.388339375,-0.6362152099609375,0.7899017333984375,-0.0009918212890625
2015-04-16 19:56:24.820,457,47332.398061125,-0.639984130859375,0.7879638671875,-0.000946044921875
2015-04-16 19:56:24.829,458,47332.40767033333,-0.6409759521484375,0.7870025634765625,-0.003875732421875
2015-04-16 19:56:24.840,459,47332.41739504167,-0.64190673828125,0.7850799560546875,-0.0038604736328125
2015-04-16 19:56:24.849,460,47332.4271125,-0.6399688720703125,0.7870025634765625,0.0010223388671875
2015-04-16 19:56:24.870,461,47332.43682987501,-0.6332855224609375,0.784210205078125,0.0029296875
2015-04-16 19:56:24.895,462,47332.446549,-0.635345458984375,0.7918243408203125,-0.0049285888671875
2015-04-16 19:56:24.896,463,47332.45626695834,-0.63818359375,0.7908477783203125,-0.0048980712890625
2015-04-16 19:56:24.897,464,47332.46598979167,-0.6390533447265625,0.78607177734375,-0.0029144287109375
2015-04-16 19:56:24.898,465,47332.475709375,-0.6390380859375,0.788909912109375,3.0517578125e-05
2015-04-16 19:56:24.908,466,47332.48554154167,-0.6400146484375,0.787017822265625,-0.002899169921875
2015-04-16 19:56:24.917,467,47332.49515591667,-0.6362152099609375,0.792755126953125,-1.52587890625e-05
2015-04-16 19:56:24.927,468,47332.50487766667,-0.635345458984375,0.795623779296875,-0.00299072265625
2015-04-16 19:56:24.936,469,47332.514607,-0.6390533447265625,0.79461669921875,0.001953125
2015-04-16 19:56:24.945,470,47332.524305125,-0.6325225830078125,0.79376220703125,-0.004974365234375
2015-04-16 19:56:24.971,471,47332.53413529167,-0.63909912109375,0.7936859130859375,-0.0019683837890625
2015-04-16 19:56:24.999,472,47332.54374379167,-0.639129638671875,0.791778564453125,-0.0048980712890625
2015-04-16 19:56:25.000,473,47332.55346629167,-0.640960693359375,0.7955474853515625,0.0019683837890625
2015-04-16 19:56:25.000,474,47332.56318591667,-0.634368896484375,0.791839599609375,-0.0029754638671875
2015-04-16 19:56:25.001,475,47332.57290383334,-0.631500244140625,0.7966156005859375,-7.62939453125e-05
2015-04-16 19:56:25.004,476,47332.58269754167,-0.6315155029296875,0.7918701171875,-0.00299072265625
2015-04-16 19:56:25.014,477,47332.59234120834,-0.629608154296875,0.7947235107421875,-0.0010833740234375
2015-04-16 19:56:25.023,478,47332.60206495834,-0.636260986328125,0.793731689453125,-0.001983642578125
2015-04-16 19:56:25.034,479,47332.61185504167,-0.641021728515625,0.7917633056640625,-0.0048675537109375
2015-04-16 19:56:25.043,480,47332.62149758334,-0.6277618408203125,0.7900238037109375,-0.0069732666015625
2015-04-16 19:56:25.053,481,47332.63134091667,-0.6353607177734375,0.7975311279296875,-0.00299072265625
2015-04-16 19:56:25.099,482,47332.64093279167,-0.6277923583984375,0.7985687255859375,-0.004058837890625
2015-04-16 19:56:25.099,483,47332.650652125,-0.629608154296875,0.796630859375,0.0008697509765625
2015-04-16 19:56:25.100,484,47332.66037425,-0.631439208984375,0.791839599609375,0.0028839111328125
2015-04-16 19:56:25.101,485,47332.67008858333,-0.633392333984375,0.789947509765625,-0.0019989013671875
2015-04-16 19:56:25.101,486,47332.67980929167,-0.6409912109375,0.797454833984375,1.52587890625e-05
2015-04-16 19:56:25.112,487,47332.68965391667,-0.6259307861328125,0.80145263671875,-0.00408935546875
2015-04-16 19:56:25.122,488,47332.69937279167,-0.624053955078125,0.800537109375,-0.007049560546875
2015-04-16 19:56:25.131,489,47332.708969,-0.62115478515625,0.797698974609375,-0.0031280517578125
2015-04-16 19:56:25.140,490,47332.71868433333,-0.6240234375,0.7967376708984375,-0.0070343017578125
2015-04-16 19:56:25.150,491,47332.728401875,-0.63055419921875,0.7909393310546875,-0.0020294189453125
2015-04-16 19:56:25.179,492,47332.74006720834,-0.6250152587890625,0.7995758056640625,-0.008026123046875
2015-04-16 19:56:25.207,493,47332.749786375,-0.6268768310546875,0.7995452880859375,-0.0050506591796875
2015-04-16 19:56:25.208,494,47332.75950779167,-0.6258544921875,0.79193115234375,-0.0040435791015625
2015-04-16 19:56:25.208,495,47332.76922420834,-0.628692626953125,0.7938079833984375,-0.0030364990234375
2015-04-16 19:56:25.209,496,47332.77894529167,-0.6239471435546875,0.7948150634765625,-0.002105712890625
2015-04-16 19:56:25.210,497,47332.78866275,-0.6297149658203125,0.8014068603515625,-0.004058837890625
2015-04-16 19:56:25.221,498,47332.79838108334,-0.6268463134765625,0.80523681640625,0.0008087158203125
2015-04-16 19:56:25.231,499,47332.80810237501,-0.6295623779296875,0.7890167236328125,-6.103515625e-05
2015-04-16 19:56:25.240,500,47332.81793054167,-0.628692626953125,0.7975921630859375,-0.0010986328125
2015-04-16 19:56:25.249,501,47332.82754125,-0.6296539306640625,0.8004302978515625,-0.0011138916015625
2015-04-16 19:56:25.268,502,47332.837259875,-0.628753662109375,0.8004608154296875,-0.004058837890625
2015-04-16 19:56:25.296,503,47332.84697770834,-0.6373291015625,0.8032379150390625,-0.005950927734375
2015-04-16 19:56:25.297,504,47332.85669716667,-0.6288299560546875,0.8033294677734375,-0.00799560546875
2015-04-16 19:56:25.298,505,47332.86835875001,-0.6267242431640625,0.786224365234375,-0.002044677734375
2015-04-16 19:56:25.299,506,47332.87808120834,-0.629638671875,0.7852325439453125,-0.007904052734375
2015-04-16 19:56:25.310,507,47332.88779891667,-0.6286468505859375,0.7881011962890625,-0.0030059814453125
2015-04-16 19:56:25.319,508,47332.89751808334,-0.63739013671875,0.8070526123046875,-0.0089263916015625
2015-04-16 19:56:25.329,509,47332.90724204167,-0.630584716796875,0.7994842529296875,0.0008697509765625
2015-04-16 19:56:25.338,510,47332.91695525,-0.6201629638671875,0.7910614013671875,-0.00311279296875
2015-04-16 19:56:25.349,511,47332.92667525,-0.620147705078125,0.7938995361328125,-0.0011749267578125
2015-04-16 19:56:25.370,512,47332.936392625,-0.6296234130859375,0.8004302978515625,0.0018310546875
2015-04-16 19:56:25.399,513,47332.946109875,-0.6343231201171875,0.802276611328125,0.0057830810546875
2015-04-16 19:56:25.400,514,47332.95583579167,-0.625823974609375,0.7976226806640625,0.0018157958984375
2015-04-16 19:56:25.401,515,47332.96554770834,-0.618255615234375,0.7967681884765625,0.000762939453125
2015-04-16 19:56:25.401,516,47332.97526770834,-0.6163177490234375,0.7967681884765625,0.0036773681640625
2015-04-16 19:56:25.407,517,47332.98509804167,-0.631622314453125,0.807098388671875,-0.0030670166015625
2015-04-16 19:56:25.416,518,47332.99471020834,-0.6315460205078125,0.8004150390625,-0.0010833740234375
2015-04-16 19:56:25.427,519,47333.004557625,-0.6268157958984375,0.7919464111328125,-0.0059814453125
2015-04-16 19:56:25.437,520,47333.01414470834,-0.630706787109375,0.7909698486328125,-0.0138092041015625
2015-04-16 19:56:25.446,521,47333.02386575,-0.63726806640625,0.788970947265625,-0.0088348388671875
2015-04-16 19:56:25.469,522,47333.03358479167,-0.6316070556640625,0.793792724609375,-0.0089111328125
2015-04-16 19:56:25.496,523,47333.04329975,-0.6297149658203125,0.798553466796875,-0.006988525390625
2015-04-16 19:56:25.497,524,47333.05302295834,-0.627685546875,0.7928466796875,0.0008697509765625
2015-04-16 19:56:25.498,525,47333.06274029167,-0.6305694580078125,0.7909393310546875,-0.0030059814453125
2015-04-16 19:56:25.499,526,47333.07246070834,-0.636260986328125,0.7908782958984375,-0.0029449462890625
2015-04-16 19:56:25.504,527,47333.08218291667,-0.63714599609375,0.798431396484375,0.004852294921875
2015-04-16 19:56:25.515,528,47333.09191037501,-0.633331298828125,0.795623779296875,0.0058135986328125
2015-04-16 19:56:25.524,529,47333.10172808333,-0.638092041015625,0.792724609375,0.001953125
2015-04-16 19:56:25.533,530,47333.11134104167,-0.6342926025390625,0.7937164306640625,0.0038604736328125
2015-04-16 19:56:25.543,531,47333.121058375,-0.6371307373046875,0.791778564453125,0.0029296875
2015-04-16 19:56:25.553,532,47333.13077808334,-0.636138916015625,0.787994384765625,0.0039215087890625
2015-04-16 19:56:25.568,533,47333.14049704167,-0.639007568359375,0.7898406982421875,0.0029449462890625
2015-04-16 19:56:25.595,534,47333.15021733334,-0.6343231201171875,0.7908782958984375,-3.0517578125e-05
2015-04-16 19:56:25.596,535,47333.16188358334,-0.635406494140625,0.79754638671875,-0.006927490234375
2015-04-16 19:56:25.596,536,47333.17160375,-0.633453369140625,0.792816162109375,-0.0059356689453125
2015-04-16 19:56:25.602,537,47333.18132420834,-0.63909912109375,0.7879791259765625,-0.0048828125
2015-04-16 19:56:25.613,538,47333.19115075,-0.636260986328125,0.7851715087890625,-0.0068511962890625
2015-04-16 19:56:25.623,539,47333.20087020833,-0.6315765380859375,0.789031982421875,-0.008880615234375
2015-04-16 19:56:25.633,540,47333.210479875,-0.63055419921875,0.7880859375,-0.0039825439453125
2015-04-16 19:56:25.643,541,47333.220309875,-0.6362457275390625,0.7918243408203125,-0.0019683837890625
2015-04-16 19:56:25.651,542,47333.22991758334,-0.6381072998046875,0.791778564453125,0.0009918212890625
2015-04-16 19:56:25.670,543,47333.239680625,-0.6372222900390625,0.79656982421875,-0.0019989013671875
2015-04-16 19:56:25.696,544,47333.249354,-0.63043212890625,0.7823486328125,0.0019378662109375
2015-04-16 19:56:25.697,545,47333.259073875,-0.632354736328125,0.7861175537109375,0.002899169921875
2015-04-16 19:56:25.697,546,47333.26879629167,-0.6400604248046875,0.796539306640625,-0.0019683837890625
2015-04-16 19:56:25.701,547,47333.27851016667,-0.6352996826171875,0.7956085205078125,-4.57763671875e-05
2015-04-16 19:56:25.710,548,47333.28834041667,-0.628631591796875,0.7909393310546875,0.0009002685546875
2015-04-16 19:56:25.720,549,47333.298062125,-0.631591796875,0.797576904296875,-0.0049896240234375
2015-04-16 19:56:25.730,550,47333.30777970834,-0.629547119140625,0.787109375,-6.103515625e-05
2015-04-16 19:56:25.739,551,47333.31749583333,-0.6305999755859375,0.7909393310546875,-0.004974365234375
2015-04-16 19:56:25.749,552,47333.32711079167,-0.62774658203125,0.797607421875,-0.0011138916015625
2015-04-16 19:56:25.770,553,47333.33682729167,-0.6276702880859375,0.791900634765625,0.001861572265625
2015-04-16 19:56:25.797,554,47333.3465445,-0.6314697265625,0.7918548583984375,0.0009307861328125
2015-04-16 19:56:25.798,555,47333.35626550001,-0.628814697265625,0.804290771484375,-0.00701904296875
2015-04-16 19:56:25.798,556,47333.36598658334,-0.6220855712890625,0.7976837158203125,-0.00213623046875
2015-04-16 19:56:25.802,557,47333.37570333334,-0.6267852783203125,0.7966766357421875,-0.0011138916015625
2015-04-16 19:56:25.807,558,47333.38542358334,-0.623992919921875,0.8014678955078125,-0.00115966796875
2015-04-16 19:56:25.816,559,47333.395145,-0.62115478515625,0.8005523681640625,-0.002166748046875
2015-04-16 19:56:25.826,560,47333.40486245834,-0.6258392333984375,0.7985687255859375,-0.0001373291015625
2015-04-16 19:56:25.837,561,47333.41469387501,-0.63055419921875,0.79852294921875,0.001861572265625
2015-04-16 19:56:25.848,562,47333.424382625,-0.6220855712890625,0.7995758056640625,-0.0011749267578125
2015-04-16 19:56:25.870,563,47333.43414583334,-0.618316650390625,0.8024749755859375,-0.0012359619140625
2015-04-16 19:56:25.903,564,47333.44374704167,-0.6193084716796875,0.80816650390625,-0.001251220703125
2015-04-16 19:56:25.904,565,47333.45345866667,-0.6183319091796875,0.8062744140625,0.0007171630859375
2015-04-16 19:56:25.905,566,47333.46317808334,-0.6221160888671875,0.803375244140625,-0.001190185546875
2015-04-16 19:56:25.905,567,47333.47290141667,-0.6192626953125,0.8043670654296875,-0.0002288818359375
2015-04-16 19:56:25.906,568,47333.48261870834,-0.6202392578125,0.809112548828125,0.0007171630859375
2015-04-16 19:56:25.915,569,47333.49233879167,-0.6164398193359375,0.8072509765625,0.000701904296875
2015-04-16 19:56:25.924,570,47333.50218541667,-0.6193084716796875,0.805328369140625,-0.0022125244140625
2015-04-16 19:56:25.934,571,47333.51178320833,-0.6155548095703125,0.809173583984375,-0.0032501220703125
2015-04-16 19:56:25.944,572,47333.52160970834,-0.6099090576171875,0.815887451171875,-0.001373291015625
2015-04-16 19:56:25.954,573,47333.53131104167,-0.611724853515625,0.804473876953125,-0.0022735595703125
2015-04-16 19:56:25.997,574,47333.54093804167,-0.613677978515625,0.81207275390625,-0.0023040771484375
2015-04-16 19:56:25.998,575,47333.55065920833,-0.61175537109375,0.813018798828125,0.0006256103515625
2015-04-16 19:56:25.998,576,47333.56037925,-0.60986328125,0.81494140625,0.0015716552734375
2015-04-16 19:56:25.999,577,47333.57010266667,-0.60791015625,0.8073577880859375,-0.0003509521484375
2015-04-16 19:56:26.002,578,47333.579819375,-0.6080474853515625,0.81878662109375,-0.00335693359375
2015-04-16 19:56:26.012,579,47333.58954095834,-0.60711669921875,0.817840576171875,-0.004364013671875
2015-04-16 19:56:26.021,580,47333.59925991667,-0.606109619140625,0.8168792724609375,-0.0014190673828125
2015-04-16 19:56:26.031,581,47333.6089785,-0.604217529296875,0.81976318359375,-0.000457763671875
2015-04-16 19:56:26.041,582,47333.6187005,-0.6090240478515625,0.81591796875,-0.00531005859375
2015-04-16 19:56:26.051,583,47333.628525875,-0.6004180908203125,0.8169403076171875,0.0005035400390625
2015-04-16 19:56:26.070,584,47333.63814020834,-0.6032867431640625,0.81787109375,-0.0014495849609375
2015-04-16 19:56:26.097,585,47333.64785320833,-0.596649169921875,0.8160400390625,-0.0015106201171875
2015-04-16 19:56:26.098,586,47333.65758070834,-0.6032562255859375,0.8169097900390625,0.0005340576171875
2015-04-16 19:56:26.098,587,47333.66729554167,-0.60235595703125,0.82550048828125,0.0014495849609375
2015-04-16 19:56:26.101,588,47333.6770115,-0.601348876953125,0.8140869140625,0.000518798828125
2015-04-16 19:56:26.109,589,47333.686842625,-0.60040283203125,0.8150482177734375,-0.0004730224609375
2015-04-16 19:56:26.120,590,47333.69850775,-0.600433349609375,0.8169403076171875,-0.00146484375
2015-04-16 19:56:26.130,591,47333.70811508333,-0.604217529296875,0.81976318359375,-0.000457763671875
2015-04-16 19:56:26.139,592,47333.71783579167,-0.6107940673828125,0.8215789794921875,0.005462646484375
2015-04-16 19:56:26.149,593,47333.72755404167,-0.6061248779296875,0.8140411376953125,-0.00335693359375
2015-04-16 19:56:26.203,594,47333.73727391667,-0.6003875732421875,0.81219482421875,-0.000457763671875
2015-04-16 19:56:26.204,595,47333.74698866667,-0.6023101806640625,0.81597900390625,0.000518798828125
2015-04-16 19:56:26.205,596,47333.75670833333,-0.5946044921875,0.7979888916015625,0.0005340576171875
2015-04-16 19:56:26.205,597,47333.76643600001,-0.591796875,0.8027801513671875,0.0004730224609375
2015-04-16 19:56:26.207,598,47333.77614691667,-0.58795166015625,0.7989959716796875,0.0024261474609375
2015-04-16 19:56:26.208,599,47333.78586379167,-0.546844482421875,0.7680206298828125,0.0149383544921875
2015-04-16 19:56:26.218,600,47333.79558683334,-0.523040771484375,0.7464141845703125,0.0128631591796875
2015-04-16 19:56:26.227,601,47333.80530158334,-0.3618621826171875,0.8063812255859375,-0.009613037109375
2015-04-16 19:56:26.237,602,47333.81506291667,-0.6520843505859375,0.4178466796875,-0.050079345703125
2015-04-16 19:56:26.248,603,47333.82484904167,-0.6602630615234375,1.182083129882812,-0.099945068359375
2015-04-16 19:56:26.274,604,47333.8345685,-1.1053466796875,1.579803466796875,-0.1722564697265625
2015-04-16 19:56:26.303,605,47333.844173375,-0.0796356201171875,0.5083160400390625,0.856414794921875
2015-04-16 19:56:26.304,606,47333.85388691667,-1.154891967773438,1.180862426757812,-0.49786376953125
2015-04-16 19:56:26.304,607,47333.86361075001,-1.1466064453125,1.158401489257812,-0.0882415771484375
2015-04-16 19:56:26.305,608,47333.873326125,-1.863998413085938,2.429519653320312,-0.659271240234375
2015-04-16 19:56:26.305,609,47333.88304391667,-1.019805908203125,1.405181884765625,0.1970672607421875
2015-04-16 19:56:26.315,610,47333.89276475,-1.44256591796875,2.11614990234375,-0.0960235595703125
2015-04-16 19:56:26.324,611,47333.90260954167,-1.164688110351562,1.017486572265625,0.118865966796875
2015-04-16 19:56:26.334,612,47333.91220070834,-1.49365234375,1.557968139648438,-0.33831787109375
2015-04-16 19:56:26.344,613,47333.9220475,-1.09210205078125,0.485504150390625,-0.1374969482421875
2015-04-16 19:56:26.354,614,47333.93175920834,-0.5543365478515625,1.447555541992188,-0.03057861328125
2015-04-16 19:56:26.397,615,47333.94135270834,-0.2916412353515625,0.995330810546875,-0.1840972900390625
2015-04-16 19:56:26.398,616,47333.951070125,-0.866943359375,0.6176910400390625,0.292816162109375
2015-04-16 19:56:26.399,617,47333.96079095834,-0.18017578125,1.377700805664062,-0.05938720703125
2015-04-16 19:56:26.399,618,47333.97051008334,-1.072021484375,0.84259033203125,-0.1384735107421875
2015-04-16 19:56:26.402,619,47333.98022875001,-1.01068115234375,1.65838623046875,-0.2757110595703125
2015-04-16 19:56:26.412,620,47333.990060875,-0.6875762939453125,0.99920654296875,0.1015777587890625
2015-04-16 19:56:26.423,621,47333.9997855,-0.96844482421875,1.183822631835938,0.0130157470703125
2015-04-16 19:56:26.432,622,47334.00938766667,-0.9095916748046875,0.6332855224609375,0.076080322265625
2015-04-16 19:56:26.442,623,47334.02105158334,-0.9095916748046875,0.6332855224609375,0.076080322265625
2015-04-16 19:56:26.453,624,47334.03087666667,-0.9858551025390625,1.098007202148438,0.007720947265625
2015-04-16 19:56:26.494,625,47334.04048608334,-0.5634765625,1.2882080078125,0.0508270263671875
2015-04-16 19:56:26.495,626,47334.05020387501,-1.213088989257812,1.0875244140625,0.0777435302734375
2015-04-16 19:56:26.495,627,47334.05992829167,-1.179092407226562,0.8538055419921875,0.0834808349609375
2015-04-16 19:56:26.496,628,47334.06964520834,-1.044677734375,1.0211181640625,0.029296875
2015-04-16 19:56:26.502,629,47334.07936829167,-1.240264892578125,1.295928955078125,-0.0025634765625
2015-04-16 19:56:26.511,630,47334.08919470834,-0.705322265625,1.268798828125,-0.0203704833984375
2015-04-16 19:56:26.522,631,47334.09891445834,-1.012237548828125,1.006210327148438,0.0408477783203125
2015-04-16 19:56:26.531,632,47334.10866058333,-0.994598388671875,0.9103546142578125,0.03131103515625
2015-04-16 19:56:26.540,633,47334.118253125,-0.9343109130859375,0.84722900390625,0.0447998046875
2015-04-16 19:56:26.550,634,47334.12796858334,-0.7533111572265625,0.8969879150390625,0.0113983154296875
2015-04-16 19:56:26.572,635,47334.13768529167,-0.7132568359375,0.7726898193359375,0.036163330078125
2015-04-16 19:56:26.601,636,47334.14740091667,-0.6832122802734375,0.7465362548828125,0.00164794921875
2015-04-16 19:56:26.602,637,47334.15712366667,-0.7728424072265625,0.66632080078125,0.0539703369140625
2015-04-16 19:56:26.603,638,47334.16683812501,-0.802032470703125,0.749786376953125,0.0410614013671875
2015-04-16 19:56:26.603,639,47334.1765615,-0.6526031494140625,0.6714935302734375,0.05572509765625
2015-04-16 19:56:26.607,640,47334.18627862501,-0.623321533203125,0.6566619873046875,0.0407867431640625
2015-04-16 19:56:26.618,641,47334.19599966667,-0.6162567138671875,0.5968017578125,0.041015625
2015-04-16 19:56:26.627,642,47334.205717,-0.5702972412109375,0.6259307861328125,0.02471923828125
2015-04-16 19:56:26.636,643,47334.21543404167,-0.6857147216796875,0.6350250244140625,0.037567138671875
2015-04-16 19:56:26.648,644,47334.22529145834,-0.65374755859375,0.6630096435546875,0.0341796875
2015-04-16 19:56:26.668,645,47334.23487445834,-0.694915771484375,0.704437255859375,0.0245361328125
2015-04-16 19:56:26.695,646,47334.24458908333,-0.6945953369140625,0.669219970703125,0.028656005859375
2015-04-16 19:56:26.696,647,47334.254310625,-0.641387939453125,0.6280059814453125,0.0185089111328125
2015-04-16 19:56:26.697,648,47334.26402670833,-0.5805206298828125,0.5906219482421875,0.0190887451171875
2015-04-16 19:56:26.698,649,47334.27375154167,-0.617645263671875,0.582672119140625,-0.0011138916015625
2015-04-16 19:56:26.705,650,47334.283466125,-0.56341552734375,0.547149658203125,-0.0014801025390625
2015-04-16 19:56:26.715,651,47334.29318841667,-0.4913330078125,0.5146942138671875,-0.009857177734375
2015-04-16 19:56:26.725,652,47334.30301070834,-0.4407196044921875,0.4553070068359375,-0.0100555419921875
2015-04-16 19:56:26.735,653,47334.31273695834,-0.349517822265625,0.4068756103515625,-0.014617919921875
2015-04-16 19:56:26.744,654,47334.322453,-0.2575531005859375,0.2841796875,-0.00311279296875
2015-04-16 19:56:26.754,655,47334.332060125,-0.18115234375,0.1974945068359375,-0.0014495849609375
2015-04-16 19:56:26.770,656,47334.34190566667,-0.160308837890625,0.1882476806640625,-0.0055389404296875
2015-04-16 19:56:26.799,657,47334.35149483334,-0.1653594970703125,0.2063140869140625,-0.0203094482421875
2015-04-16 19:56:26.800,658,47334.36121258334,-0.1674346923828125,0.2300872802734375,-0.020416259765625
2015-04-16 19:56:26.801,659,47334.37093283334,-0.2076416015625,0.26300048828125,-0.0359039306640625
2015-04-16 19:56:26.802,660,47334.38065291667,-0.1873321533203125,0.2384185791015625,-0.016357421875
2015-04-16 19:56:26.812,661,47334.39036991667,-0.13519287109375,0.220947265625,-0.0216827392578125
2015-04-16 19:56:26.822,662,47334.40008529167,-0.121673583984375,0.1877899169921875,-0.0206451416015625
2015-04-16 19:56:26.832,663,47334.40980741667,-0.121551513671875,0.1716156005859375,-0.02056884765625
2015-04-16 19:56:26.841,664,47334.419695625,-0.064849853515625,0.18841552734375,-0.01824951171875
2015-04-16 19:56:26.851,665,47334.42936529167,-0.1191253662109375,0.194549560546875,-0.03936767578125
2015-04-16 19:56:26.870,666,47334.43896379167,-0.1373748779296875,0.1229248046875,-0.0270538330078125
2015-04-16 19:56:26.900,667,47334.44867895834,-0.256439208984375,0.09490966796875,-0.0247802734375
2015-04-16 19:56:26.900,668,47334.45839641667,-0.463592529296875,0.083953857421875,-0.013885498046875
2015-04-16 19:56:26.901,669,47334.468118625,-0.4923858642578125,0.1112823486328125,-0.0294647216796875
2015-04-16 19:56:26.902,670,47334.47783466667,-0.58740234375,0.1938629150390625,-0.008331298828125
2015-04-16 19:56:26.909,671,47334.48755329167,-0.726318359375,0.2655792236328125,-0.019134521484375
2015-04-16 19:56:26.919,672,47334.49727079167,-0.636932373046875,0.363616943359375,-0.0067291259765625
2015-04-16 19:56:26.928,673,47334.506993,-0.8363494873046875,0.4365234375,-0.0100555419921875
2015-04-16 19:56:26.938,674,47334.51671058334,-0.7207183837890625,0.5719757080078125,0.00189208984375
2015-04-16 19:56:26.949,675,47334.52643445833,-0.61590576171875,0.6789093017578125,-0.0310821533203125
2015-04-16 19:56:26.969,676,47334.53615054167,-0.5955657958984375,0.7391204833984375,-0.035491943359375
2015-04-16 19:56:26.997,677,47334.54586704167,-0.670501708984375,0.7819671630859375,-0.021240234375
2015-04-16 19:56:26.998,678,47334.55558679167,-0.73504638671875,1.036300659179688,-0.0336761474609375
2015-04-16 19:56:26.998,679,47334.56530804167,-0.7733154296875,1.192962646484375,-0.049774169921875
2015-04-16 19:56:27.001,680,47334.57502595834,-0.8127899169921875,1.00384521484375,0.0114288330078125
2015-04-16 19:56:27.007,681,47334.58474683334,-0.592315673828125,1.107330322265625,-0.0118255615234375
2015-04-16 19:56:27.017,682,47334.59446116667,-0.5869598388671875,1.12457275390625,-0.0286712646484375
2015-04-16 19:56:27.026,683,47334.60428975,-0.7671661376953125,0.968231201171875,0.0052642822265625
2015-04-16 19:56:27.035,684,47334.61393729167,-0.61138916015625,1.00811767578125,-0.0072174072265625
2015-04-16 19:56:27.046,685,47334.623613,-0.5731658935546875,0.9543304443359375,-0.0102691650390625
2015-04-16 19:56:27.055,686,47334.63336225,-0.67877197265625,0.911224365234375,-0.002166748046875
2015-04-16 19:56:27.096,687,47334.64305108334,-0.6258392333984375,0.9156646728515625,-0.006622314453125
2015-04-16 19:56:27.097,688,47334.65277275,-0.6487579345703125,0.8249664306640625,-6.103515625e-05
2015-04-16 19:56:27.097,689,47334.66249145834,-0.5377197265625,0.7796173095703125,-0.00384521484375
2015-04-16 19:56:27.098,690,47334.67221587501,-0.5255889892578125,0.6760406494140625,-0.0044403076171875
2015-04-16 19:56:27.103,691,47334.68193750001,-0.520599365234375,0.6342315673828125,-0.0081939697265625
2015-04-16 19:56:27.114,692,47334.69165183334,-0.518280029296875,0.5828704833984375,-0.0040435791015625
2015-04-16 19:56:27.123,693,47334.70141062501,-0.5438232421875,0.5778350830078125,-0.0067138671875
2015-04-16 19:56:27.132,694,47334.71110654167,-0.571258544921875,0.57275390625,-0.007415771484375
2015-04-16 19:56:27.142,695,47334.720805625,-0.583740234375,0.58880615234375,-0.0113067626953125
2015-04-16 19:56:27.151,696,47334.7305245,-0.5760345458984375,0.57366943359375,-0.0113067626953125
2015-04-16 19:56:27.212,697,47334.74024275001,-0.6129150390625,0.5637359619140625,-0.011871337890625
2015-04-16 19:56:27.213,698,47334.749968875,-0.62237548828125,0.5655364990234375,-0.0108184814453125
2015-04-16 19:56:27.213,699,47334.75968604167,-0.64569091796875,0.5328826904296875,-0.0015716552734375
2015-04-16 19:56:27.214,700,47334.76943450001,-0.656890869140625,0.5184478759765625,0.0034942626953125
2015-04-16 19:56:27.214,701,47334.77912420833,-0.6871795654296875,0.5152587890625,0.0018463134765625
2015-04-16 19:56:27.215,702,47334.78884466667,-0.7170562744140625,0.573944091796875,-0.006011962890625
2015-04-16 19:56:27.220,703,47334.79856820834,-0.7249603271484375,0.6024322509765625,-0.015899658203125
2015-04-16 19:56:27.230,704,47334.80828354167,-0.729705810546875,0.602386474609375,-0.0158538818359375
2015-04-16 19:56:27.240,705,47334.818113875,-0.820587158203125,0.5956573486328125,-0.01788330078125
2015-04-16 19:56:27.249,706,47334.82772245834,-0.8024444580078125,0.583465576171875,-0.014068603515625
2015-04-16 19:56:27.270,707,47334.83744495834,-0.77838134765625,0.53900146484375,-0.0081939697265625
2015-04-16 19:56:27.300,708,47334.84715904167,-0.7508392333984375,0.526947021484375,-0.008392333984375
2015-04-16 19:56:27.300,709,47334.85687700001,-0.7509002685546875,0.5269622802734375,-0.0123291015625
2015-04-16 19:56:27.301,710,47334.86660120833,-0.691436767578125,0.4457550048828125,-0.0007171630859375
2015-04-16 19:56:27.301,711,47334.8763225,-0.6622161865234375,0.4527587890625,-0.006927490234375
2015-04-16 19:56:27.308,712,47334.886191875,-0.6330413818359375,0.470245361328125,-0.0112152099609375
2015-04-16 19:56:27.318,713,47334.89576220833,-0.669586181640625,0.4137115478515625,-0.014495849609375
2015-04-16 19:56:27.327,714,47334.90548870833,-0.71697998046875,0.3036956787109375,-0.0076141357421875
2015-04-16 19:56:27.337,715,47334.91530829167,-0.76129150390625,0.240478515625,-0.028472900390625
2015-04-16 19:56:27.346,716,47334.92491770833,-0.6407470703125,0.3274993896484375,-0.02911376953125
2015-04-16 19:56:27.368,717,47334.93465641667,-0.5936279296875,0.3831634521484375,-0.0150909423828125
2015-04-16 19:56:27.397,718,47334.94435245833,-0.6238861083984375,0.392303466796875,-0.006988525390625
2015-04-16 19:56:27.398,719,47334.95407241667,-0.6210784912109375,0.4018402099609375,-0.0031280517578125
2015-04-16 19:56:27.398,720,47334.96379441667,-0.6620025634765625,0.4156646728515625,-0.0116424560546875
2015-04-16 19:56:27.399,721,47334.97350966667,-0.63983154296875,0.467376708984375,-0.0248870849609375
2015-04-16 19:56:27.406,722,47334.98323066667,-0.5890960693359375,0.5164947509765625,-0.0265960693359375
2015-04-16 19:56:27.415,723,47334.9929515,-0.6258697509765625,0.5093994140625,-0.0213165283203125
2015-04-16 19:56:27.425,724,47335.00266725,-0.6562652587890625,0.5185546875,-0.0220489501953125
2015-04-16 19:56:27.433,725,47335.012381375,-0.658355712890625,0.5470733642578125,-0.0201873779296875
2015-04-16 19:56:27.444,726,47335.02210408333,-0.7031097412109375,0.5760650634765625,-0.023834228515625
2015-04-16 19:56:27.454,727,47335.031933625,-0.766387939453125,0.5753173828125,-0.012420654296875
2015-04-16 19:56:27.499,728,47335.041541125,-0.747314453125,0.5593414306640625,-0.01153564453125
2015-04-16 19:56:27.500,729,47335.05125866667,-0.73779296875,0.5689239501953125,-0.0008697509765625
2015-04-16 19:56:27.501,730,47335.06097645834,-0.707550048828125,0.57403564453125,-0.0021820068359375
2015-04-16 19:56:27.502,731,47335.07069541667,-0.6806793212890625,0.5362548828125,0.004608154296875
2015-04-16 19:56:27.503,732,47335.08041504167,-0.7347259521484375,0.5356597900390625,-0.0017242431640625
2015-04-16 19:56:27.512,733,47335.09014220833,-0.7661590576171875,0.5685882568359375,0.0013580322265625
2015-04-16 19:56:27.522,734,47335.09985504167,-0.8145751953125,0.581390380859375,-0.001190185546875
2015-04-16 19:56:27.532,735,47335.10957795833,-0.853851318359375,0.634246826171875,-0.0059814453125
2015-04-16 19:56:27.542,736,47335.11940145834,-0.8463897705078125,0.645751953125,-0.007080078125
2015-04-16 19:56:27.551,737,47335.12912020834,-0.7924957275390625,0.6530303955078125,-0.0105743408203125
2015-04-16 19:56:27.597,738,47335.13873104167,-0.799224853515625,0.674835205078125,-0.004730224609375
2015-04-16 19:56:27.598,739,47335.14844520834,-0.8103179931640625,0.6470794677734375,-0.0005645751953125
2015-04-16 19:56:27.599,740,47335.15816704167,-0.8264007568359375,0.6402435302734375,-0.002349853515625
2015-04-16 19:56:27.600,741,47335.16788695833,-0.8540191650390625,0.660888671875,-0.0041351318359375
2015-04-16 19:56:27.602,742,47335.17760512501,-0.835052490234375,0.6591949462890625,-0.003326416015625
2015-04-16 19:56:27.609,743,47335.187432625,-0.762054443359375,0.64385986328125,-0.0039520263671875
2015-04-16 19:56:27.619,744,47335.19704558334,-0.73297119140625,0.6727294921875,-0.0073394775390625
2015-04-16 19:56:27.629,745,47335.2068675,-0.70330810546875,0.646392822265625,0.0013580322265625
2015-04-16 19:56:27.639,746,47335.21658675,-0.6948089599609375,0.633209228515625,-0.00848388671875
2015-04-16 19:56:27.648,747,47335.22619879167,-0.706817626953125,0.599761962890625,-0.0042724609375
2015-04-16 19:56:27.699,748,47335.23592291667,-0.726654052734375,0.5947723388671875,-0.004058837890625
2015-04-16 19:56:27.699,749,47335.24563233334,-0.7248077392578125,0.6042938232421875,-0.002166748046875
2015-04-16 19:56:27.700,750,47335.25535770834,-0.7079620361328125,0.6206817626953125,-0.00732421875
2015-04-16 19:56:27.700,751,47335.265072625,-0.6567840576171875,0.6183929443359375,-0.003875732421875
2015-04-16 19:56:27.701,752,47335.27479416667,-0.627349853515625,0.602569580078125,-0.0080108642578125
2015-04-16 19:56:27.706,753,47335.28451125,-0.6016693115234375,0.5876312255859375,-0.0081787109375
2015-04-16 19:56:27.716,754,47335.29423308334,-0.6201324462890625,0.5407562255859375,0.0030364990234375
2015-04-16 19:56:27.726,755,47335.30406029167,-0.64111328125,0.5510101318359375,-0.0027008056640625
2015-04-16 19:56:27.736,756,47335.31366970834,-0.6896820068359375,0.598968505859375,0.00244140625
2015-04-16 19:56:27.747,757,47335.32533937501,-0.7559356689453125,0.7067108154296875,-0.007293701171875
2015-04-16 19:56:27.768,758,47335.33505141667,-0.7676544189453125,0.745635986328125,-0.0132598876953125
2015-04-16 19:56:27.794,759,47335.34476462501,-0.7628631591796875,0.7390289306640625,-0.0122833251953125
2015-04-16 19:56:27.795,760,47335.35448633334,-0.720672607421875,0.6814422607421875,-0.0045318603515625
2015-04-16 19:56:27.796,761,47335.36420566667,-0.723236083984375,0.6490478515625,-0.00140380859375
2015-04-16 19:56:27.797,762,47335.37392266667,-0.7430572509765625,0.6459503173828125,0.001739501953125
2015-04-16 19:56:27.805,763,47335.38364045833,-0.762115478515625,0.6628570556640625,0.0018310546875
2015-04-16 19:56:27.815,764,47335.39336029167,-0.7701263427734375,0.7113189697265625,-0.00421142578125
2015-04-16 19:56:27.825,765,47335.40307983333,-0.814727783203125,0.7269744873046875,-0.00286865234375
2015-04-16 19:56:27.835,766,47335.41290516667,-0.786346435546875,0.7292022705078125,-0.003173828125
2015-04-16 19:56:27.845,767,47335.42262212501,-0.7806549072265625,0.7340087890625,0.0006866455078125
2015-04-16 19:56:27.854,768,47335.432342625,-0.782379150390625,0.7234954833984375,0.0085906982421875
2015-04-16 19:56:27.869,769,47335.44195225,-0.7755279541015625,0.7064208984375,0.0154876708984375
2015-04-16 19:56:27.896,770,47335.45168804167,-0.8032379150390625,0.7489013671875,0.0204620361328125
2015-04-16 19:56:27.897,771,47335.461389625,-0.855072021484375,0.8292388916015625,0.01171875
2015-04-16 19:56:27.898,772,47335.471138375,-0.9077911376953125,0.901947021484375,0.0020599365234375
2015-04-16 19:56:27.903,773,47335.48083570834,-0.9164581298828125,0.920867919921875,0.003021240234375
2015-04-16 19:56:27.913,774,47335.49065904167,-0.9162750244140625,0.89422607421875,0.001190185546875
2015-04-16 19:56:27.922,775,47335.50027325,-0.876007080078125,0.8299713134765625,0.0040740966796875
2015-04-16 19:56:27.932,776,47335.5099925,-0.8347930908203125,0.7704925537109375,0.0078887939453125
2015-04-16 19:56:27.942,777,47335.51976454167,-0.8119049072265625,0.7403106689453125,0.0038909912109375
2015-04-16 19:56:27.952,778,47335.52953941667,-0.767059326171875,0.6932373046875,0.003692626953125
2015-04-16 19:56:27.966,779,47335.53914966667,-0.74365234375,0.7201690673828125,-0.0015716552734375
2015-04-16 19:56:27.992,780,47335.54886979167,-0.7926025390625,0.7872314453125,-0.014190673828125
2015-04-16 19:56:27.993,781,47335.55858820834,-0.767852783203125,0.7760772705078125,-0.011444091796875
2015-04-16 19:56:27.993,782,47335.56831141667,-0.7596282958984375,0.7952423095703125,-0.0233917236328125
2015-04-16 19:56:28.000,783,47335.5780335,-0.79718017578125,0.767181396484375,-0.0140533447265625
2015-04-16 19:56:28.010,784,47335.58783191667,-0.827484130859375,0.7573394775390625,-0.0196075439453125
2015-04-16 19:56:28.019,785,47335.5974705,-0.798065185546875,0.7443695068359375,-0.02178955078125
2015-04-16 19:56:28.030,786,47335.60729633334,-0.798797607421875,0.72625732421875,-0.01580810546875
2015-04-16 19:56:28.039,787,47335.6170175,-0.7877197265625,0.7473602294921875,-0.026824951171875
2015-04-16 19:56:28.048,788,47335.62663225,-0.7763214111328125,0.7408294677734375,-0.0269012451171875
2015-04-16 19:56:28.069,789,47335.63634745833,-0.736419677734375,0.7326812744140625,-0.020355224609375
2015-04-16 19:56:28.097,790,47335.64606462501,-0.80780029296875,0.777557373046875,-0.0238189697265625
2015-04-16 19:56:28.098,791,47335.655788125,-0.8101806640625,0.7327728271484375,-0.013763427734375
2015-04-16 19:56:28.099,792,47335.665508875,-0.8158111572265625,0.7213134765625,-0.0165863037109375
2015-04-16 19:56:28.102,793,47335.67522558333,-0.8358306884765625,0.734405517578125,-0.0194091796875
2015-04-16 19:56:28.106,794,47335.68494579167,-0.807220458984375,0.718536376953125,-0.0127410888671875
2015-04-16 19:56:28.117,795,47335.69466516667,-0.767425537109375,0.7199249267578125,-0.01019287109375
2015-04-16 19:56:28.127,796,47335.70449608334,-0.7684173583984375,0.7256317138671875,-0.0111846923828125
2015-04-16 19:56:28.137,797,47335.71422329167,-0.7064666748046875,0.6844329833984375,-0.001739501953125
2015-04-16 19:56:28.146,798,47335.72382879167,-0.7603912353515625,0.6857147216796875,0.001708984375
2015-04-16 19:56:28.155,799,47335.73354545834,-0.7986602783203125,0.721466064453125,-0.0069427490234375
2015-04-16 19:56:28.202,800,47335.74326920834,-0.7948760986328125,0.72247314453125,-0.008941650390625
2015-04-16 19:56:28.202,801,47335.75298916667,-0.859344482421875,0.744537353515625,-0.001556396484375
2015-04-16 19:56:28.203,802,47335.76271137501,-0.8910369873046875,0.796539306640625,-0.0064239501953125
2015-04-16 19:56:28.203,803,47335.77242995834,-0.8445587158203125,0.784698486328125,-0.0068206787109375
2015-04-16 19:56:28.204,804,47335.78215033334,-0.8216552734375,0.7716217041015625,-9.1552734375e-05
2015-04-16 19:56:28.214,805,47335.7918905,-0.82147216796875,0.745941162109375,4.57763671875e-05
2015-04-16 19:56:28.224,806,47335.80170429167,-0.786895751953125,0.69586181640625,0.0077972412109375
2015-04-16 19:56:28.233,807,47335.81131229167,-0.81597900390625,0.6735992431640625,0.01605224609375
2015-04-16 19:56:28.243,808,47335.821033125,-0.879425048828125,0.68048095703125,0.019561767578125
2015-04-16 19:56:28.253,809,47335.830866875,-0.910919189453125,0.704864501953125,0.01385498046875
2015-04-16 19:56:28.271,810,47335.84058104167,-0.9380645751953125,0.77691650390625,0.0059051513671875
2015-04-16 19:56:28.300,811,47335.85019129167,-0.91302490234375,0.817230224609375,-0.011199951171875
2015-04-16 19:56:28.301,812,47335.859911125,-0.8647003173828125,0.8025970458984375,-0.0165252685546875
2015-04-16 19:56:28.301,813,47335.86963204167,-0.78826904296875,0.7082977294921875,-0.0177764892578125
2015-04-16 19:56:28.302,814,47335.87935429167,-0.8175811767578125,0.6405487060546875,-0.0544891357421875
2015-04-16 19:56:28.311,815,47335.88917916667,-0.0968475341796875,0.044708251953125,0.1340179443359375
2015-04-16 19:56:28.321,816,47335.89879929167,-0.24609375,-1.660980224609375,0.0672760009765625
2015-04-16 19:56:28.332,817,47335.91045516667,-0.2305755615234375,0.14447021484375,0.026763916015625
2015-04-16 19:56:28.343,818,47335.92028133334,-1.677581787109375,0.5977630615234375,-0.6146697998046875
2015-04-16 19:56:28.352,819,47335.92989470834,1.5516357421875,-1.03863525390625,1.873748779296875
2015-04-16 19:56:28.376,820,47335.93961350001,-2.284896850585938,2.776016235351562,0.0168609619140625
2015-04-16 19:56:28.407,821,47335.9493345,3.375869750976562,-3.72027587890625,0.8960723876953125
2015-04-16 19:56:28.408,822,47335.959054125,-3.0281982421875,3.758895874023438,-1.852920532226562
2015-04-16 19:56:28.410,823,47335.96877141667,-7.043182373046875,7.6156005859375,3.435287475585938
2015-04-16 19:56:28.410,824,47335.97850641667,-4.101028442382812,3.136627197265625,0.8095245361328125
2015-04-16 19:56:28.411,825,47335.988217375,1.120162963867188,-1.748931884765625,3.627822875976562
2015-04-16 19:56:28.419,826,47335.99793779167,4.197799682617188,-0.56640625,-2.597625732421875
2015-04-16 19:56:28.427,827,47336.00765283334,-0.32568359375,0.6326751708984375,-1.937179565429688
2015-04-16 19:56:28.437,828,47336.01737470834,-1.3245849609375,0.4509124755859375,-2.407913208007812
2015-04-16 19:56:28.449,829,47336.02709825,-0.0855560302734375,-0.6534576416015625,-0.8625030517578125
2015-04-16 19:56:28.479,830,47336.0368125,0.665435791015625,-0.2706756591796875,0.033935546875
2015-04-16 19:56:28.508,831,47336.04652770833,-1.261276245117188,0.752960205078125,-0.4014129638671875
2015-04-16 19:56:28.508,832,47336.05624954167,0.5328826904296875,-0.493316650390625,0.1266632080078125
2015-04-16 19:56:28.509,833,47336.065971875,-0.30438232421875,0.564605712890625,0.4192657470703125
2015-04-16 19:56:28.510,834,47336.07568804167,-1.388214111328125,1.289871215820312,-0.0983428955078125
2015-04-16 19:56:28.510,835,47336.08540858333,-2.304367065429688,2.872222900390625,1.138259887695312
2015-04-16 19:56:28.514,836,47336.095127875,-5.16192626953125,2.193161010742188,-1.166473388671875
2015-04-16 19:56:28.524,837,47336.1048435,0.307769775390625,-1.378082275390625,1.11248779296875
2015-04-16 19:56:28.534,838,47336.11456404167,0.5915985107421875,0.3036346435546875,-1.036834716796875
2015-04-16 19:56:28.543,839,47336.12428166667,0.2073211669921875,-0.869232177734375,0.882080078125
2015-04-16 19:56:28.554,840,47336.13400229167,-0.20440673828125,1.294204711914062,0.291900634765625
2015-04-16 19:56:28.594,841,47336.14372858334,-1.204360961914062,0.703216552734375,0.3162689208984375
2015-04-16 19:56:28.594,842,47336.15344241667,-1.60955810546875,2.16412353515625,1.01129150390625
2015-04-16 19:56:28.595,843,47336.16316079167,-1.956771850585938,1.13665771484375,-0.29443359375
2015-04-16 19:56:28.595,844,47336.17288320834,-0.7238616943359375,0.1650848388671875,-0.1060791015625
2015-04-16 19:56:28.601,845,47336.1826015,-1.060821533203125,0.6209564208984375,-0.1296234130859375
2015-04-16 19:56:28.611,846,47336.19232254167,0.003875732421875,0.0485992431640625,0.165435791015625
2015-04-16 19:56:28.622,847,47336.20207804167,-0.4644622802734375,0.681396484375,0.2611083984375
2015-04-16 19:56:28.631,848,47336.21175900001,-1.48443603515625,1.190658569335938,0.1682586669921875
2015-04-16 19:56:28.642,849,47336.22160983334,-0.6162109375,0.50067138671875,0.28509521484375
2015-04-16 19:56:28.654,850,47336.23119708334,-0.6162109375,0.50067138671875,0.28509521484375
2015-04-16 19:56:28.695,851,47336.24091525,-1.271163940429688,0.790740966796875,-0.1176300048828125
2015-04-16 19:56:28.695,852,47336.25063808334,-0.583709716796875,0.3834381103515625,-0.0525054931640625
2015-04-16 19:56:28.696,853,47336.26035425,-0.6273193359375,0.64178466796875,-0.05731201171875
2015-04-16 19:56:28.697,854,47336.27007308334,-0.5834808349609375,0.5640411376953125,-0.004302978515625
2015-04-16 19:56:28.701,855,47336.27979108334,-1.030227661132812,0.8367462158203125,0.0163116455078125
2015-04-16 19:56:28.711,856,47336.28951037501,-0.8200225830078125,0.60498046875,0.031158447265625
2015-04-16 19:56:28.722,857,47336.29923116667,-0.8948974609375,0.6822967529296875,-0.00384521484375
2015-04-16 19:56:28.732,858,47336.30894575,-0.584014892578125,0.5411224365234375,0.01446533203125
2015-04-16 19:56:28.741,859,47336.31877641667,-0.6740875244140625,0.67144775390625,0.004852294921875
2015-04-16 19:56:28.750,860,47336.32838291667,-0.775726318359375,0.6121978759765625,0.0189056396484375
2015-04-16 19:56:28.794,861,47336.33810129167,-0.9347991943359375,0.69232177734375,-0.0094146728515625
2015-04-16 19:56:28.795,862,47336.34781816667,-0.8025054931640625,0.627166748046875,0.007293701171875
2015-04-16 19:56:28.795,863,47336.35753658334,-0.764312744140625,0.6932830810546875,-0.0031890869140625
2015-04-16 19:56:28.796,864,47336.36725879167,-0.614013671875,0.6074371337890625,0.0016632080078125
2015-04-16 19:56:28.798,865,47336.37697633333,-0.81793212890625,0.6422576904296875,-0.0063629150390625
2015-04-16 19:56:28.809,866,47336.38669970834,-0.8016357421875,0.6205596923828125,-0.003448486328125
2015-04-16 19:56:28.819,867,47336.39655020834,-0.869415283203125,0.6864013671875,-0.0070648193359375
2015-04-16 19:56:28.828,868,47336.406240625,-0.7612762451171875,0.665740966796875,-0.0050506591796875
2015-04-16 19:56:28.838,869,47336.41585254167,-0.759429931640625,0.654388427734375,-0.01483154296875
2015-04-16 19:56:28.849,870,47336.42751383334,-0.7560882568359375,0.62579345703125,0.007843017578125
2015-04-16 19:56:28.894,871,47336.439176375,-0.777862548828125,0.6255340576171875,0.008056640625
2015-04-16 19:56:28.895,872,47336.448894,-0.7933197021484375,0.6567840576171875,0.0011749267578125
2015-04-16 19:56:28.895,873,47336.458610375,-0.8058319091796875,0.6699981689453125,-0.0056304931640625
2015-04-16 19:56:28.896,874,47336.46832966667,-0.7839202880859375,0.651214599609375,-0.006744384765625
2015-04-16 19:56:28.900,875,47336.47805320834,-0.76678466796875,0.636199951171875,-0.0078125
2015-04-16 19:56:28.910,876,47336.48777383334,-0.779083251953125,0.6351165771484375,-0.0076904296875
2015-04-16 19:56:28.918,877,47336.49749166667,-0.787689208984375,0.6445159912109375,-0.009613037109375
2015-04-16 19:56:28.930,878,47336.50732012501,-0.791534423828125,0.6501922607421875,-0.010589599609375
2015-04-16 19:56:28.938,879,47336.516926125,-0.791473388671875,0.646392822265625,-0.0085906982421875
2015-04-16 19:56:28.951,880,47336.52664500001,-0.7847747802734375,0.636932373046875,-0.00762939453125
2015-04-16 19:56:28.981,881,47336.53636520834,-0.7715606689453125,0.642791748046875,-0.0087738037109375
2015-04-16 19:56:29.009,882,47336.54608120833,-0.7725067138671875,0.6465911865234375,-0.005828857421875
2015-04-16 19:56:29.010,883,47336.55580483333,-0.782867431640625,0.6483612060546875,0.000152587890625
2015-04-16 19:56:29.011,884,47336.56552029167,-0.7828369140625,0.6436004638671875,0.00018310546875
2015-04-16 19:56:29.011,885,47336.5752375,-0.7847747802734375,0.65118408203125,0.000152587890625
2015-04-16 19:56:29.012,886,47336.5849585,-0.77435302734375,0.6522369384765625,0.00299072265625
2015-04-16 19:56:29.018,887,47336.59467758334,-0.778076171875,0.649322509765625,0.0050048828125
2015-04-16 19:56:29.026,888,47336.60439420833,-0.78094482421875,0.6521453857421875,0.0050048828125
2015-04-16 19:56:29.035,889,47336.61411495833,-0.7791290283203125,0.6559906005859375,0.0010528564453125
2015-04-16 19:56:29.045,890,47336.62383383334,-0.77435302734375,0.657928466796875,0.005889892578125
2015-04-16 19:56:29.067,891,47336.63354925,-0.7734527587890625,0.6608123779296875,0.0039215087890625
2015-04-16 19:56:29.094,892,47336.64326787501,-0.7762451171875,0.659820556640625,0.005889892578125
2015-04-16 19:56:29.095,893,47336.65298495834,-0.7743988037109375,0.65985107421875,0.0029449462890625
2015-04-16 19:56:29.095,894,47336.66270345834,-0.776336669921875,0.6645965576171875,0.0019683837890625
2015-04-16 19:56:29.096,895,47336.67242154167,-0.774444580078125,0.661773681640625,0
2015-04-16 19:56:29.105,896,47336.68222454167,-0.7696990966796875,0.6599273681640625,-0.0010223388671875
2015-04-16 19:56:29.114,897,47336.69186179167,-0.77630615234375,0.6607818603515625,0.001983642578125
2015-04-16 19:56:29.123,898,47336.70158025,-0.769775390625,0.664703369140625,-0.0039825439453125
2015-04-16 19:56:29.133,899,47336.71130220834,-0.7678680419921875,0.664703369140625,-0.002044677734375
2015-04-16 19:56:29.143,900,47336.72107795833,-0.7735443115234375,0.6636810302734375,-0.001983642578125
2015-04-16 19:56:29.153,901,47336.73073295833,-0.7707061767578125,0.661834716796875,-0.00494384765625
2015-04-16 19:56:29.183,902,47336.74059308333,-0.7697906494140625,0.6627960205078125,-0.005950927734375
2015-04-16 19:56:29.217,903,47336.7501735,-0.7678985595703125,0.6609039306640625,-0.0069427490234375
2015-04-16 19:56:29.217,904,47336.75989637501,-0.7678680419921875,0.6609039306640625,-0.004974365234375
2015-04-16 19:56:29.218,905,47336.76961383333,-0.7621307373046875,0.6609649658203125,-0.0001220703125
2015-04-16 19:56:29.219,906,47336.77933729167,-0.7659759521484375,0.663787841796875,-0.0040130615234375
2015-04-16 19:56:29.219,907,47336.78905533333,-0.765045166015625,0.6590423583984375,-0.0069580078125
2015-04-16 19:56:29.220,908,47336.79877191667,-0.770721435546875,0.6589813232421875,-0.00689697265625
2015-04-16 19:56:29.230,909,47336.80863045833,-0.775390625,0.657012939453125,-0.0019378662109375
2015-04-16 19:56:29.241,910,47336.81833983333,-0.7707366943359375,0.661834716796875,-0.0069122314453125
2015-04-16 19:56:29.251,911,47336.82767370834,-0.76593017578125,0.656158447265625,-0.00299072265625
2015-04-16 19:56:29.252,912,47336.83740870834,-0.768768310546875,0.65234375,-0.005889892578125
2015-04-16 19:56:29.269,913,47336.84738087501,-0.775421142578125,0.657958984375,-0.0029144287109375
2015-04-16 19:56:29.302,914,47336.85710125,-0.775390625,0.6589202880859375,-0.000946044921875
2015-04-16 19:56:29.302,915,47336.86682154167,-0.7762451171875,0.653167724609375,0.0030059814453125
2015-04-16 19:56:29.303,916,47336.87654808334,-0.7744140625,0.6503448486328125,-0.002899169921875
2015-04-16 19:56:29.303,917,47336.88626154167,-0.781951904296875,0.6540679931640625,0.0010833740234375
2015-04-16 19:56:29.310,918,47336.89609925,-0.779052734375,0.655029296875,0.005950927734375
2015-04-16 19:56:29.320,919,47336.90570154167,-0.7829132080078125,0.65216064453125,-0.0008392333984375
2015-04-16 19:56:29.329,920,47336.91542454167,-0.77911376953125,0.64935302734375,-0.001861572265625
2015-04-16 19:56:29.339,921,47336.92525362501,-0.7781829833984375,0.650299072265625,-0.0018768310546875
2015-04-16 19:56:29.349,922,47336.93486483334,-0.7780914306640625,0.647430419921875,0.0020751953125
2015-04-16 19:56:29.369,923,47336.94458504167,-0.783843994140625,0.6464385986328125,-0.002777099609375
2015-04-16 19:56:29.395,924,47336.95430012501,-0.7885284423828125,0.641632080078125,-0.001739501953125
2015-04-16 19:56:29.396,925,47336.96401987501,-0.7866363525390625,0.6425933837890625,-0.0017547607421875
2015-04-16 19:56:29.397,926,47336.97373704167,-0.7809600830078125,0.6474151611328125,0.0001220703125
2015-04-16 19:56:29.401,927,47336.98345225,-0.7875518798828125,0.643524169921875,0.0012054443359375
2015-04-16 19:56:29.409,928,47336.99328337501,-0.7838134765625,0.64263916015625,-0.0037384033203125
2015-04-16 19:56:29.418,929,47337.0029015,-0.7819061279296875,0.644561767578125,-0.000823974609375
2015-04-16 19:56:29.429,930,47337.01273441667,-0.7819061279296875,0.64361572265625,-0.0008087158203125
2015-04-16 19:56:29.440,931,47337.02244429167,-0.7884979248046875,0.6397247314453125,-0.000732421875
2015-04-16 19:56:29.450,932,47337.03205208333,-0.7875823974609375,0.6407012939453125,-0.003692626953125
2015-04-16 19:56:29.468,933,47337.04176833334,-0.790435791015625,0.6368560791015625,-0.0066070556640625
2015-04-16 19:56:29.494,934,47337.05148125,-0.7942352294921875,0.6387176513671875,-0.0065765380859375
2015-04-16 19:56:29.495,935,47337.06120400001,-0.7874755859375,0.6359100341796875,0.002227783203125
2015-04-16 19:56:29.495,936,47337.07092508334,-0.7876129150390625,0.6407012939453125,-0.0056610107421875
2015-04-16 19:56:29.498,937,47337.08064004167,-0.78851318359375,0.6397247314453125,-0.0017242431640625
2015-04-16 19:56:29.509,938,47337.09047125001,-0.7894287109375,0.6368560791015625,-0.0016937255859375
2015-04-16 19:56:29.518,939,47337.10021070833,-0.794158935546875,0.6349029541015625,-0.00262451171875
2015-04-16 19:56:29.528,940,47337.10990741667,-0.78936767578125,0.633056640625,0.0002899169921875
2015-04-16 19:56:29.538,941,47337.11952016667,-0.7940673828125,0.630126953125,0.0013275146484375
2015-04-16 19:56:29.549,942,47337.12924895834,-0.794189453125,0.6339569091796875,-0.00555419921875
2015-04-16 19:56:29.570,943,47337.13906616667,-0.7913055419921875,0.633056640625,-0.0036163330078125
2015-04-16 19:56:29.597,944,47337.14867554167,-0.7894287109375,0.632110595703125,-0.0046234130859375
2015-04-16 19:56:29.597,945,47337.158398375,-0.7922210693359375,0.6282806396484375,-0.0035858154296875
2015-04-16 19:56:29.598,946,47337.16811483334,-0.7940673828125,0.6263275146484375,-0.0006103515625
2015-04-16 19:56:29.602,947,47337.17783841667,-0.7950592041015625,0.6263427734375,-0.004547119140625
2015-04-16 19:56:29.605,948,47337.18755225,-0.79888916015625,0.6310577392578125,-0.0035247802734375
2015-04-16 19:56:29.614,949,47337.19727575,-0.7979888916015625,0.629180908203125,-0.007476806640625
2015-04-16 19:56:29.625,950,47337.20710545834,-0.7913055419921875,0.6302032470703125,-0.0045928955078125
2015-04-16 19:56:29.635,951,47337.21681925,-0.7931060791015625,0.62445068359375,-0.0006103515625
2015-04-16 19:56:29.645,952,47337.226441125,-0.7913055419921875,0.6254425048828125,-0.0065460205078125
2015-04-16 19:56:29.655,953,47337.23626191667,-0.7913360595703125,0.6311492919921875,-0.0055694580078125
2015-04-16 19:56:29.696,954,47337.24586241667,-0.79132080078125,0.6320953369140625,-0.004608154296875
2015-04-16 19:56:29.697,955,47337.255585375,-0.78839111328125,0.629241943359375,0.0012664794921875
2015-04-16 19:56:29.698,956,47337.26530316667,-0.788482666015625,0.634979248046875,-0.002685546875
2015-04-16 19:56:29.698,957,47337.27502537501,-0.7912445068359375,0.63397216796875,0.0032501220703125
2015-04-16 19:56:29.702,958,47337.28474845833,-0.7960662841796875,0.6320343017578125,-0.0055389404296875
2015-04-16 19:56:29.714,959,47337.29457066667,-0.7940826416015625,0.631072998046875,0.0013275146484375
2015-04-16 19:56:29.722,960,47337.30429345834,-0.792205810546875,0.6273193359375,-0.001617431640625
2015-04-16 19:56:29.731,961,47337.31390425,-0.7941131591796875,0.629180908203125,-0.001617431640625
2015-04-16 19:56:29.742,962,47337.32362175,-0.793182373046875,0.631103515625,-0.0016326904296875
2015-04-16 19:56:29.751,963,47337.33344941667,-0.794158935546875,0.6349029541015625,-0.00262451171875
2015-04-16 19:56:29.797,964,47337.34305745833,-0.788482666015625,0.636871337890625,-0.001708984375
2015-04-16 19:56:29.797,965,47337.35277441667,-0.788421630859375,0.6378173828125,0.0041656494140625
2015-04-16 19:56:29.798,966,47337.36253875,-0.7922515869140625,0.6358795166015625,-0.00067138671875
2015-04-16 19:56:29.799,967,47337.37221625001,-0.7904052734375,0.640655517578125,-0.0017242431640625
2015-04-16 19:56:29.801,968,47337.381936875,-0.7904205322265625,0.63970947265625,-0.003662109375
2015-04-16 19:56:29.811,969,47337.39176154167,-0.7866058349609375,0.6416473388671875,0.000213623046875
2015-04-16 19:56:29.820,970,47337.40137362501,-0.785736083984375,0.643585205078125,-0.0047149658203125
2015-04-16 19:56:29.829,971,47337.4111045,-0.7847442626953125,0.642608642578125,-0.00177001953125
2015-04-16 19:56:29.839,972,47337.42092058334,-0.7857208251953125,0.6445159912109375,-0.0027618408203125
2015-04-16 19:56:29.848,973,47337.43053170833,-0.7904205322265625,0.63970947265625,-0.003662109375
2015-04-16 19:56:29.870,974,47337.440395625,-0.7847747802734375,0.6435699462890625,-0.00274658203125
2015-04-16 19:56:29.896,975,47337.449970375,-0.787628173828125,0.646392822265625,-0.0027313232421875
2015-04-16 19:56:29.897,976,47337.45969095833,-0.783843994140625,0.6436004638671875,-0.004730224609375
2015-04-16 19:56:29.898,977,47337.46941241667,-0.779144287109375,0.64556884765625,-0.005767822265625
2015-04-16 19:56:29.899,978,47337.47913375001,-0.779083251953125,0.64935302734375,0.0001068115234375
2015-04-16 19:56:29.907,979,47337.488975375,-0.77911376953125,0.6446075439453125,-0.004791259765625
2015-04-16 19:56:29.916,980,47337.49857304167,-0.782958984375,0.64837646484375,-0.0067291259765625
2015-04-16 19:56:29.926,981,47337.50828904167,-0.7828521728515625,0.6455078125,0.0001678466796875
2015-04-16 19:56:29.936,982,47337.51811808334,-0.7790985107421875,0.648406982421875,-0.0008697509765625
2015-04-16 19:56:29.946,983,47337.52773045834,-0.7724609375,0.6494293212890625,-0.0009307861328125
2015-04-16 19:56:29.968,984,47337.53755525,-0.7820281982421875,0.6512451171875,-0.0067596435546875
2015-04-16 19:56:29.995,985,47337.54716625001,-0.7877349853515625,0.654022216796875,-0.0067138671875
2015-04-16 19:56:29.995,986,47337.55688408334,-0.784820556640625,0.6502227783203125,-0.0027923583984375
2015-04-16 19:56:29.996,987,47337.56660670834,-0.784820556640625,0.6464385986328125,-0.005706787109375
2015-04-16 19:56:29.996,988,47337.57632779167,-0.77911376953125,0.64935302734375,-0.001861572265625
2015-04-16 19:56:30.004,989,47337.586056625,-0.771514892578125,0.644683837890625,-0.003875732421875
2015-04-16 19:56:30.014,990,47337.5958925,-0.7600555419921875,0.6409912109375,0.001922607421875
2015-04-16 19:56:30.025,991,47337.60559529167,-0.7600250244140625,0.6257781982421875,-0.0029144287109375
2015-04-16 19:56:30.033,992,47337.61531479167,-0.719940185546875,0.5995635986328125,0.0056610107421875
2015-04-16 19:56:30.043,993,47337.62492416667,-0.66534423828125,0.5230865478515625,0.01043701171875
2015-04-16 19:56:30.053,994,47337.63469554167,-0.35675048828125,0.616455078125,-0.089263916015625
2015-04-16 19:56:30.095,995,47337.64436154167,-0.85943603515625,0.8755950927734375,0.0665435791015625
2015-04-16 19:56:30.096,996,47337.65407991667,-0.197784423828125,0.0950927734375,0.34100341796875
2015-04-16 19:56:30.097,997,47337.66379958334,-2.206085205078125,1.140869140625,0.5703125
2015-04-16 19:56:30.097,998,47337.67351695833,-0.9807281494140625,-0.185943603515625,0.3352203369140625
2015-04-16 19:56:30.101,999,47337.68323575,-1.604522705078125,1.304916381835938,-0.196533203125
2015-04-16 19:56:30.111,1000,47337.69307266667,-1.387344360351562,1.189987182617188,0.1339111328125
2015-04-16 19:56:30.121,1001,47337.70278420833,-2.490463256835938,1.17242431640625,0.1947479248046875
2015-04-16 19:56:30.132,1002,47337.712539,-1.078887939453125,2.031463623046875,0.2308807373046875
2015-04-16 19:56:30.140,1003,47337.72211908334,-1.743026733398438,1.369888305664062,-0.178802490234375
2015-04-16 19:56:30.149,1004,47337.73183358333,-1.52142333984375,0.779815673828125,0.000732421875
2015-04-16 19:56:30.206,1005,47337.7415495,-1.780929565429688,1.500473022460938,-0.1054229736328125
2015-04-16 19:56:30.207,1006,47337.75127120833,-0.63720703125,0.639312744140625,0.05670166015625
2015-04-16 19:56:30.207,1007,47337.760989125,-1.229141235351562,1.30810546875,-0.159912109375
2015-04-16 19:56:30.208,1008,47337.77070458334,-0.4144287109375,0.9454345703125,-0.1895294189453125
2015-04-16 19:56:30.209,1009,47337.78044125,-0.1761322021484375,-0.2281951904296875,0.5869598388671875
2015-04-16 19:56:30.209,1010,47337.790147125,-2.424087524414062,1.1627197265625,0.1961212158203125
2015-04-16 19:56:30.217,1011,47337.79998425,-0.251556396484375,0.7683563232421875,0.30084228515625
2015-04-16 19:56:30.228,1012,47337.80969545834,-1.227996826171875,1.423507690429688,-0.227264404296875
2015-04-16 19:56:30.238,1013,47337.81930308334,-1.329238891601562,0.802154541015625,-0.28411865234375
2015-04-16 19:56:30.248,1014,47337.829162375,-0.655609130859375,0.9831390380859375,-0.0734710693359375
2015-04-16 19:56:30.269,1015,47337.838743125,-0.8080596923828125,0.405548095703125,-0.036712646484375
2015-04-16 19:56:30.296,1016,47337.848461125,-1.671539306640625,1.066818237304688,-0.0955047607421875
2015-04-16 19:56:30.297,1017,47337.8581815,-0.62750244140625,1.0408935546875,0.0841064453125
2015-04-16 19:56:30.298,1018,47337.86789945834,-1.580947875976562,0.909454345703125,0.0124359130859375
2015-04-16 19:56:30.299,1019,47337.87762341667,-1.494766235351562,1.02880859375,0.1563720703125
2015-04-16 19:56:30.305,1020,47337.887338375,-1.087295532226562,0.712738037109375,-0.0748443603515625
2015-04-16 19:56:30.316,1021,47337.897062125,-0.8129425048828125,0.4201507568359375,0.107635498046875
2015-04-16 19:56:30.325,1022,47337.90677795833,-1.0030517578125,0.9152679443359375,-0.0344085693359375
2015-04-16 19:56:30.335,1023,47337.91659241667,-1.298736572265625,0.7635955810546875,-0.0681304931640625
2015-04-16 19:56:30.344,1024,47337.92621675001,-0.7114410400390625,0.6761932373046875,-0.0988922119140625
2015-04-16 19:56:30.354,1025,47337.935989625,-0.7281646728515625,0.7718048095703125,-0.0186767578125
2015-04-16 19:56:30.370,1026,47337.94565520834,-1.47637939453125,0.60736083984375,-0.0558013916015625
2015-04-16 19:56:30.397,1027,47337.95537358334,-0.7712249755859375,0.8208160400390625,-0.02734375
2015-04-16 19:56:30.397,1028,47337.96509904167,-1.188278198242188,0.485595703125,0.04119873046875
2015-04-16 19:56:30.398,1029,47337.97481629167,-0.8437347412109375,0.823028564453125,-0.068878173828125
2015-04-16 19:56:30.402,1030,47337.98452966667,-0.866912841796875,0.566619873046875,-0.0300750732421875
2015-04-16 19:56:30.412,1031,47337.99436120834,-1.015823364257812,0.4394073486328125,-0.0486297607421875
2015-04-16 19:56:30.424,1032,47338.004106875,-0.99774169921875,0.60791015625,-0.019195556640625
2015-04-16 19:56:30.434,1033,47338.01369104167,-0.872955322265625,0.6663665771484375,-4.57763671875e-05
2015-04-16 19:56:30.443,1034,47338.02351445833,-1.094451904296875,0.57427978515625,0.026092529296875
2015-04-16 19:56:30.453,1035,47338.03312262501,-0.94775390625,0.5731201171875,0.019775390625
2015-04-16 19:56:30.469,1036,47338.04284070834,-0.91253662109375,0.5316925048828125,0.00982666015625
2015-04-16 19:56:30.498,1037,47338.052560875,-0.81927490234375,0.47564697265625,0.0150909423828125
2015-04-16 19:56:30.499,1038,47338.06228075,-0.8305816650390625,0.458404541015625,0.0093994140625
2015-04-16 19:56:30.500,1039,47338.0719995,-0.74456787109375,0.3746337890625,0.022735595703125
2015-04-16 19:56:30.501,1040,47338.081717125,-0.7387237548828125,0.4452056884765625,0.0027008056640625
2015-04-16 19:56:30.512,1041,47338.09143808333,-0.559234619140625,0.3749237060546875,0.004241943359375
2015-04-16 19:56:30.520,1042,47338.101159375,-0.5545196533203125,0.3521881103515625,-0.011383056640625
2015-04-16 19:56:30.531,1043,47338.11087395834,-0.463836669921875,0.255218505859375,-0.00982666015625
2015-04-16 19:56:30.543,1044,47338.120713,-0.3620147705078125,0.1869049072265625,-0.008514404296875
2015-04-16 19:56:30.554,1045,47338.13236137501,-0.3620147705078125,0.1869049072265625,-0.008514404296875
2015-04-16 19:56:30.569,1046,47338.14196979167,-0.2510223388671875,0.171966552734375,-0.0006561279296875
2015-04-16 19:56:30.599,1047,47338.1516885,-0.19329833984375,0.1688232421875,-0.005126953125
2015-04-16 19:56:30.600,1048,47338.16140575,-0.11883544921875,0.1001739501953125,0.0023345947265625
2015-04-16 19:56:30.600,1049,47338.17112975,-0.183990478515625,0.0576171875,-0.00762939453125
2015-04-16 19:56:30.602,1050,47338.180847125,-0.120635986328125,0.0754547119140625,-0.0043792724609375
2015-04-16 19:56:30.613,1051,47338.19067470833,-0.1068115234375,0.11749267578125,-0.0096435546875
2015-04-16 19:56:30.624,1052,47338.20227654167,-0.083740234375,0.0853729248046875,0.0001068115234375
2015-04-16 19:56:30.633,1053,47338.21194841667,0.0185394287109375,-0.004608154296875,-0.0505218505859375
2015-04-16 19:56:30.643,1054,47338.22177595834,-0.064208984375,-0.09307861328125,-0.0581207275390625
2015-04-16 19:56:30.653,1055,47338.23139854167,-0.1112823486328125,-0.31927490234375,-0.01922607421875
2015-04-16 19:56:30.669,1056,47338.24110525,-0.0422821044921875,-0.363739013671875,-0.127716064453125
2015-04-16 19:56:30.700,1057,47338.25082616667,-0.233428955078125,-0.240325927734375,-0.1215667724609375
2015-04-16 19:56:30.701,1058,47338.26054291667,-0.1416168212890625,-0.485107421875,-0.04364013671875
2015-04-16 19:56:30.701,1059,47338.27026445833,0.028106689453125,-0.327911376953125,-0.0814208984375
2015-04-16 19:56:30.702,1060,47338.27998383334,-0.20269775390625,-0.341339111328125,0.0023956298828125
2015-04-16 19:56:30.712,1061,47338.28981295833,-0.6314239501953125,-0.0716552734375,-0.1224822998046875
2015-04-16 19:56:30.722,1062,47338.29942441667,0.167266845703125,-0.04150390625,0.0827789306640625
2015-04-16 19:56:30.731,1063,47338.30914083333,-0.9237213134765625,0.3204498291015625,-0.0223846435546875
2015-04-16 19:56:30.741,1064,47338.31897316667,-0.78790283203125,0.2994384765625,0.14434814453125
2015-04-16 19:56:30.750,1065,47338.32858904167,-0.9100341796875,1.287994384765625,-0.171722412109375
2015-04-16 19:56:30.769,1066,47338.33830158334,-0.827728271484375,0.2976837158203125,-0.00848388671875
2015-04-16 19:56:30.797,1067,47338.34801491667,-1.122833251953125,1.092178344726562,-0.11761474609375
2015-04-16 19:56:30.798,1068,47338.35773083333,-0.768096923828125,0.965728759765625,0.152618408203125
2015-04-16 19:56:30.798,1069,47338.36745504167,-1.288619995117188,1.004013061523438,0.0464630126953125
2015-04-16 19:56:30.801,1070,47338.377169625,-0.9681243896484375,1.09417724609375,0.06060791015625
2015-04-16 19:56:30.809,1071,47338.387,-1.18487548828125,1.15179443359375,0.02703857421875
2015-04-16 19:56:30.819,1072,47338.3967235,-1.0146484375,0.9661865234375,0.050872802734375
2015-04-16 19:56:30.829,1073,47338.40643225001,-1.103530883789062,0.9024810791015625,0.0235748291015625
2015-04-16 19:56:30.838,1074,47338.41615320834,-1.096160888671875,0.7235565185546875,0.0509185791015625
2015-04-16 19:56:30.848,1075,47338.42575820834,-0.8906707763671875,0.7888336181640625,0.017181396484375
2015-04-16 19:56:30.870,1076,47338.435519375,-0.872772216796875,0.453033447265625,0.0392913818359375
2015-04-16 19:56:30.897,1077,47338.44519504167,-0.8153228759765625,0.546173095703125,-0.0059051513671875
2015-04-16 19:56:30.897,1078,47338.45491629167,-0.7084503173828125,0.45977783203125,0.0101776123046875
2015-04-16 19:56:30.898,1079,47338.46463612501,-0.779571533203125,0.4637603759765625,0.00396728515625
2015-04-16 19:56:30.901,1080,47338.47435108334,-0.6849365234375,0.3658294677734375,0.0172882080078125
2015-04-16 19:56:30.906,1081,47338.48418229167,-0.7066802978515625,0.339935302734375,0.0048675537109375
2015-04-16 19:56:30.915,1082,47338.4938045,-0.53924560546875,0.3542327880859375,0.0002288818359375
2015-04-16 19:56:30.926,1083,47338.50351320834,-0.5313720703125,0.3162384033203125,0.0023040771484375
2015-04-16 19:56:30.936,1084,47338.51333845834,-0.5020751953125,0.311859130859375,-0.0058135986328125
2015-04-16 19:56:30.946,1085,47338.52297529167,-0.561614990234375,0.31494140625,0.0055389404296875
2015-04-16 19:56:30.955,1086,47338.5327785,-0.542083740234375,0.3352203369140625,-0.0104522705078125
2015-04-16 19:56:30.995,1087,47338.54238545834,-0.5484161376953125,0.3065643310546875,-0.0033721923828125
2015-04-16 19:56:30.996,1088,47338.55210908334,-0.5048370361328125,0.2833099365234375,-0.016448974609375
2015-04-16 19:56:30.997,1089,47338.56182391667,-0.3521270751953125,0.17578125,-0.055694580078125
2015-04-16 19:56:30.997,1090,47338.57154695834,-0.39471435546875,0.2854156494140625,0.0089874267578125
2015-04-16 19:56:31.003,1091,47338.58126966667,-0.5477447509765625,0.1788482666015625,0.0493011474609375
2015-04-16 19:56:31.014,1092,47338.59098683333,-0.2899627685546875,0.1392669677734375,-0.0295867919921875
2015-04-16 19:56:31.023,1093,47338.60085995834,-0.3694610595703125,0.0782470703125,0.0136871337890625
2015-04-16 19:56:31.032,1094,47338.61041866667,-0.51959228515625,0.0460357666015625,0.027099609375
2015-04-16 19:56:31.041,1095,47338.62013870833,-0.442291259765625,0.1191864013671875,0.041717529296875
2015-04-16 19:56:31.051,1096,47338.630025125,-0.4110565185546875,0.110992431640625,0.0355377197265625
2015-04-16 19:56:31.096,1097,47338.63957908333,-0.48388671875,0.0740509033203125,0.020721435546875
2015-04-16 19:56:31.097,1098,47338.64929875,-0.50677490234375,0.076690673828125,0.0101318359375
2015-04-16 19:56:31.098,1099,47338.65901804167,-0.5570526123046875,0.1074981689453125,0.0202789306640625
2015-04-16 19:56:31.098,1100,47338.66874391667,-0.5675048828125,0.1064300537109375,0.017425537109375
2015-04-16 19:56:31.101,1101,47338.67846179167,-0.6434173583984375,0.1322021484375,0.019012451171875
2015-04-16 19:56:31.110,1102,47338.68817737501,-0.66925048828125,0.157623291015625,0.0122833251953125
2015-04-16 19:56:31.120,1103,47338.69789870833,-0.7518463134765625,0.1861724853515625,0.0119476318359375
2015-04-16 19:56:31.130,1104,47338.70774183334,-0.799285888671875,0.1961212158203125,0.0103912353515625
2015-04-16 19:56:31.139,1105,47338.71744820834,-0.8316802978515625,0.2281036376953125,0.01251220703125
2015-04-16 19:56:31.149,1106,47338.72705454167,-0.8369598388671875,0.2889556884765625,0.005401611328125
2015-04-16 19:56:31.202,1107,47338.73677083333,-0.8927154541015625,0.2740631103515625,0.0050201416015625
2015-04-16 19:56:31.203,1108,47338.74648895834,-0.8954620361328125,0.252166748046875,-0.000732421875
2015-04-16 19:56:31.204,1109,47338.75620900001,-0.79400634765625,0.2333221435546875,0.0013427734375
2015-04-16 19:56:31.204,1110,47338.76592925,-0.829132080078125,0.2490997314453125,0.0025787353515625
2015-04-16 19:56:31.205,1111,47338.77564520833,-0.8435211181640625,0.2727203369140625,0.001617431640625
2015-04-16 19:56:31.208,1112,47338.78536425,-0.7314300537109375,0.36248779296875,0.0069427490234375
2015-04-16 19:56:31.217,1113,47338.79508404167,-0.864044189453125,0.358154296875,0.0004119873046875
2015-04-16 19:56:31.226,1114,47338.804806875,-0.981689453125,0.4597015380859375,-0.0343170166015625
2015-04-16 19:56:31.237,1115,47338.81457633334,-0.99468994140625,0.443328857421875,-0.0223236083984375
2015-04-16 19:56:31.248,1116,47338.824343125,-1.0614013671875,0.4253387451171875,0.0078582763671875
2015-04-16 19:56:31.257,1117,47338.833954875,-1.124588012695312,0.5112152099609375,0.002166748046875
2015-04-16 19:56:31.299,1118,47338.84367258334,-1.16375732421875,0.459320068359375,0.01947021484375
2015-04-16 19:56:31.300,1119,47338.85339025001,-1.188278198242188,0.5523529052734375,0.0055084228515625
2015-04-16 19:56:31.300,1120,47338.8631125,-1.196441650390625,0.5094146728515625,0.009735107421875
2015-04-16 19:56:31.300,1121,47338.87283108334,-1.103713989257812,0.5218963623046875,0.0117034912109375
2015-04-16 19:56:31.305,1122,47338.882660875,-1.067123413085938,0.45947265625,0.0224761962890625
2015-04-16 19:56:31.316,1123,47338.89421104167,-0.994964599609375,0.446929931640625,0.0316619873046875
2015-04-16 19:56:31.325,1124,47338.90393120833,-0.977508544921875,0.40521240234375,0.0405426025390625
2015-04-16 19:56:31.335,1125,47338.91365016667,-1.048843383789062,0.43963623046875,0.0351715087890625
2015-04-16 19:56:31.345,1126,47338.923476125,-1.073959350585938,0.4983673095703125,0.0292205810546875
2015-04-16 19:56:31.368,1127,47338.93317470833,-1.11993408203125,0.5521392822265625,0.01959228515625
2015-04-16 19:56:31.396,1128,47338.94280220834,-1.21429443359375,0.60821533203125,0.0035247802734375
2015-04-16 19:56:31.396,1129,47338.95252000001,-1.142593383789062,0.5309600830078125,0.0130157470703125
2015-04-16 19:56:31.397,1130,47338.96224058334,-1.2186279296875,0.5681610107421875,0.0106201171875
2015-04-16 19:56:31.397,1131,47338.97195970834,-1.283782958984375,0.56072998046875,0.0211181640625
2015-04-16 19:56:31.403,1132,47338.98167770834,-1.322738647460938,0.5688629150390625,0.0155792236328125
2015-04-16 19:56:31.414,1133,47338.99150866667,-1.300735473632812,0.532012939453125,0.0115966796875
2015-04-16 19:56:31.423,1134,47339.001117125,-1.258010864257812,0.50872802734375,0.0074005126953125
2015-04-16 19:56:31.433,1135,47339.01083779167,-1.131866455078125,0.4778289794921875,0.0073089599609375
2015-04-16 19:56:31.443,1136,47339.02066691667,-1.063751220703125,0.4634246826171875,-0.0070343017578125
2015-04-16 19:56:31.453,1137,47339.03038858333,-1.011611938476562,0.4506988525390625,-0.0084381103515625
2015-04-16 19:56:31.467,1138,47339.03999770834,-1.033523559570312,0.452392578125,-0.01806640625
2015-04-16 19:56:31.495,1139,47339.04971654167,-1.037445068359375,0.463775634765625,-0.0220184326171875
2015-04-16 19:56:31.496,1140,47339.05943858334,-1.09442138671875,0.4878692626953125,-0.0225830078125
2015-04-16 19:56:31.496,1141,47339.06915875,-1.106674194335938,0.4877166748046875,-0.017547607421875
2015-04-16 19:56:31.501,1142,47339.07887829167,-1.088546752929688,0.472686767578125,-0.0146942138671875
2015-04-16 19:56:31.510,1143,47339.08870458334,-1.058380126953125,0.4816131591796875,-0.0199432373046875
2015-04-16 19:56:31.521,1144,47339.09842354167,-1.02691650390625,0.462921142578125,-0.014251708984375
2015-04-16 19:56:31.531,1145,47339.10814166667,-0.9830780029296875,0.431060791015625,-0.010589599609375
2015-04-16 19:56:31.539,1146,47339.11784675,-1.029434204101562,0.415313720703125,-0.015960693359375
2015-04-16 19:56:31.549,1147,47339.12748729167,-1.049392700195312,0.4340972900390625,-0.011932373046875
2015-04-16 19:56:31.568,1148,47339.13719304167,-1.0968017578125,0.44879150390625,-0.00860595703125
2015-04-16 19:56:31.596,1149,47339.14690758334,-1.193984985351562,0.5181121826171875,-0.015869140625
2015-04-16 19:56:31.597,1150,47339.15662812501,-1.232147216796875,0.550048828125,-0.0195770263671875
2015-04-16 19:56:31.598,1151,47339.16634616667,-1.197235107421875,0.565673828125,-0.019989013671875
2015-04-16 19:56:31.599,1152,47339.17606645833,-1.142776489257812,0.5063323974609375,-0.01531982421875
2015-04-16 19:56:31.607,1153,47339.18578791667,-1.099456787109375,0.4363555908203125,-0.0016326904296875
2015-04-16 19:56:31.617,1154,47339.19551175,-1.08880615234375,0.406951904296875,0.0013427734375
2015-04-16 19:56:31.626,1155,47339.205224,-1.10980224609375,0.428619384765625,0.0004730224609375
2015-04-16 19:56:31.636,1156,47339.21494729167,-1.10565185546875,0.4886474609375,-0.0106658935546875
2015-04-16 19:56:31.647,1157,47339.2247245,-1.089889526367188,0.5183563232421875,-0.0198211669921875
2015-04-16 19:56:31.670,1158,47339.23449325001,-1.070114135742188,0.5252685546875,-0.02496337890625
2015-04-16 19:56:31.700,1159,47339.24604641667,-1.010910034179688,0.355560302734375,-0.00897216796875
2015-04-16 19:56:31.700,1160,47339.25576854167,-1.06494140625,0.3255157470703125,-0.0308990478515625
2015-04-16 19:56:31.701,1161,47339.26548283334,-0.10009765625,-0.01214599609375,0.0695037841796875
2015-04-16 19:56:31.701,1162,47339.275221125,0.26934814453125,-0.3131256103515625,-0.235076904296875
2015-04-16 19:56:31.707,1163,47339.28503483334,-1.661239624023438,2.0133056640625,-0.2230682373046875
2015-04-16 19:56:31.717,1164,47339.29464104167,-0.200775146484375,-0.4344329833984375,0.68841552734375
2015-04-16 19:56:31.726,1165,47339.30447329167,1.37164306640625,0.0487060546875,-0.014739990234375
2015-04-16 19:56:31.735,1166,47339.3140795,-3.61749267578125,3.024642944335938,0.204315185546875
2015-04-16 19:56:31.747,1167,47339.32391704167,-7.6981201171875,3.659912109375,-0.143463134765625
2015-04-16 19:56:31.769,1168,47339.33363179167,-0.121185302734375,0.0235443115234375,1.323806762695312
2015-04-16 19:56:31.798,1169,47339.34323870834,1.083602905273438,-0.61187744140625,1.137542724609375
2015-04-16 19:56:31.799,1170,47339.352959625,0.642181396484375,-0.328582763671875,3.057662963867188
2015-04-16 19:56:31.800,1171,47339.36267775,-0.8623809814453125,3.6500244140625,3.274444580078125
2015-04-16 19:56:31.800,1172,47339.37240466667,-0.4633331298828125,0.0027618408203125,1.5069580078125
2015-04-16 19:56:31.804,1173,47339.38223529167,-1.010040283203125,0.271759033203125,0.0110626220703125
2015-04-16 19:56:31.814,1174,47339.391979625,-1.001510620117188,0.2719268798828125,0.231964111328125
2015-04-16 19:56:31.823,1175,47339.40156175,-0.7646026611328125,-0.0876617431640625,0.4102325439453125
2015-04-16 19:56:31.833,1176,47339.41128450001,-0.37652587890625,-0.6460723876953125,0.5212249755859375
