loggingTime,loggingSample,accelerometerTimestamp_sinceReboot,accelerometerAccelerationX,accelerometerAccelerationY,accelerometerAccelerationZ
2015-04-16 19:58:11.921,1,47439.43645658334,-0.631195068359375,-0.778228759765625,0.0057525634765625
2015-04-16 19:58:11.921,2,47439.44617508334,-0.6245880126953125,-0.781951904296875,0.001800537109375
2015-04-16 19:58:11.922,3,47439.4559635,-0.6169586181640625,-0.7780914306640625,0.0075836181640625
2015-04-16 19:58:11.923,4,47439.46561241667,-0.5930023193359375,-0.785797119140625,0.0987091064453125
2015-04-16 19:58:11.923,5,47439.47533125,-0.6140289306640625,-0.7859649658203125,0.084197998046875
2015-04-16 19:58:11.924,6,47439.485049875,-0.613250732421875,-0.7707366943359375,0.079193115234375
2015-04-16 19:58:11.924,7,47439.49477016667,-0.6166229248046875,-0.779144287109375,0.033111572265625
2015-04-16 19:58:11.925,8,47439.50448870833,-0.61029052734375,-0.77423095703125,0.0133819580078125
2015-04-16 19:58:11.926,9,47439.51420245833,-0.61248779296875,-0.7703704833984375,-0.008209228515625
2015-04-16 19:58:11.935,10,47439.52392545834,-0.6002197265625,-0.76641845703125,-0.0083465576171875
2015-04-16 19:58:11.945,11,47439.53364316667,-0.6009521484375,-0.7845306396484375,-0.003326416015625
2015-04-16 19:58:11.969,12,47439.54347279167,-0.5981597900390625,-0.7769012451171875,-0.0014495849609375
2015-04-16 19:58:11.998,13,47439.55309408333,-0.606536865234375,-0.78271484375,0.0055389404296875
2015-04-16 19:58:11.998,14,47439.56279579167,-0.6065826416015625,-0.7798614501953125,0.004547119140625
2015-04-16 19:58:11.999,15,47439.572510375,-0.6215972900390625,-0.7876739501953125,0.0106048583984375
2015-04-16 19:58:12.000,16,47439.58222675,-0.6141357421875,-0.774261474609375,0.009490966796875
2015-04-16 19:58:12.004,17,47439.59206045834,-0.6226043701171875,-0.78387451171875,0.007659912109375
2015-04-16 19:58:12.013,18,47439.60166941667,-0.609375,-0.7799072265625,0.0075225830078125
2015-04-16 19:58:12.024,19,47439.611493125,-0.6150665283203125,-0.7808990478515625,0.005615234375
2015-04-16 19:58:12.033,20,47439.62110445834,-0.6094207763671875,-0.7789459228515625,0.00457763671875
2015-04-16 19:58:12.045,21,47439.63081541667,-0.611236572265625,-0.786590576171875,0.0055999755859375
2015-04-16 19:58:12.068,22,47439.64056041667,-0.6159820556640625,-0.794219970703125,0.0007781982421875
2015-04-16 19:58:12.097,23,47439.65024708334,-0.6131439208984375,-0.793243408203125,0.000732421875
2015-04-16 19:58:12.098,24,47439.65996558333,-0.6178131103515625,-0.79901123046875,0.001800537109375
2015-04-16 19:58:12.098,25,47439.66967975,-0.613037109375,-0.8046722412109375,0.0037384033203125
2015-04-16 19:58:12.099,26,47439.67939775001,-0.6158905029296875,-0.808502197265625,-0.0001373291015625
2015-04-16 19:58:12.104,27,47439.68923033334,-0.6073760986328125,-0.80841064453125,-0.000213623046875
2015-04-16 19:58:12.113,28,47439.69883958334,-0.6026763916015625,-0.8073883056640625,-0.002227783203125
2015-04-16 19:58:12.123,29,47439.70866283333,-0.6055145263671875,-0.8083648681640625,-0.002197265625
2015-04-16 19:58:12.133,30,47439.7182695,-0.6036529541015625,-0.8035888671875,-0.0032196044921875
2015-04-16 19:58:12.141,31,47439.727986375,-0.5961151123046875,-0.7996978759765625,-0.004302978515625
2015-04-16 19:58:12.152,32,47439.73781383334,-0.6008453369140625,-0.7997589111328125,-0.003265380859375
2015-04-16 19:58:12.194,33,47439.74741995834,-0.601776123046875,-0.8064117431640625,-0.00518798828125
2015-04-16 19:58:12.194,34,47439.75713862501,-0.5970306396484375,-0.802581787109375,-0.0013427734375
2015-04-16 19:58:12.195,35,47439.76685462501,-0.5960540771484375,-0.7987518310546875,0.0006103515625
2015-04-16 19:58:12.196,36,47439.77656958334,-0.5970458984375,-0.7997283935546875,-0.0013580322265625
2015-04-16 19:58:12.200,37,47439.78630629167,-0.5980224609375,-0.7930755615234375,-0.0003814697265625
2015-04-16 19:58:12.211,38,47439.79616229167,-0.5913848876953125,-0.7891998291015625,0.0015106201171875
2015-04-16 19:58:12.219,39,47439.80572295834,-0.57440185546875,-0.785186767578125,0.000335693359375
2015-04-16 19:58:12.230,40,47439.81544429167,-0.577178955078125,-0.7890472412109375,0.003326416015625
2015-04-16 19:58:12.240,41,47439.82526766667,-0.578125,-0.7890625,0.003326416015625
2015-04-16 19:58:12.251,42,47439.83498775,-0.577178955078125,-0.7890472412109375,0.003326416015625
2015-04-16 19:58:12.294,43,47439.84458804167,-0.578125,-0.7890625,0.003326416015625
2015-04-16 19:58:12.295,44,47439.85430829167,-0.5837554931640625,-0.7919769287109375,0.00537109375
2015-04-16 19:58:12.295,45,47439.86402991667,-0.5847320556640625,-0.7872314453125,0.005340576171875
2015-04-16 19:58:12.296,46,47439.87374420834,-0.5932159423828125,-0.7882843017578125,0.008392333984375
2015-04-16 19:58:12.299,47,47439.88346495834,-0.590423583984375,-0.788238525390625,0.0044403076171875
2015-04-16 19:58:12.309,48,47439.89318833334,-0.5781097412109375,-0.7833709716796875,0.008209228515625
2015-04-16 19:58:12.319,49,47439.903007375,-0.57708740234375,-0.7900238037109375,0.01019287109375
2015-04-16 19:58:12.329,50,47439.91261479167,-0.5817413330078125,-0.79388427734375,0.013214111328125
2015-04-16 19:58:12.339,51,47439.922364625,-0.58843994140625,-0.79205322265625,0.00933837890625
2015-04-16 19:58:12.349,52,47439.93205016667,-0.59326171875,-0.7816314697265625,0.00738525390625
2015-04-16 19:58:12.392,53,47439.94177095834,-0.5875396728515625,-0.785369873046875,0.0092926025390625
2015-04-16 19:58:12.393,54,47439.95148320834,-0.5800323486328125,-0.7776641845703125,0.0091705322265625
2015-04-16 19:58:12.393,55,47439.96120370834,-0.5715484619140625,-0.767120361328125,0.0110015869140625
2015-04-16 19:58:12.394,56,47439.97092225,-0.571533203125,-0.7804107666015625,0.00421142578125
2015-04-16 19:58:12.396,57,47439.98063679167,-0.576324462890625,-0.781402587890625,0.000335693359375
2015-04-16 19:58:12.406,58,47439.99046766667,-0.590545654296875,-0.780609130859375,-0.0015106201171875
2015-04-16 19:58:12.416,59,47440.00007375,-0.5970916748046875,-0.786407470703125,0.0015411376953125
2015-04-16 19:58:12.425,60,47440.00978462501,-0.6064910888671875,-0.7960357666015625,0.002655029296875
2015-04-16 19:58:12.435,61,47440.01950354167,-0.599884033203125,-0.7940521240234375,0.002593994140625
2015-04-16 19:58:12.445,62,47440.02925016667,-0.5819549560546875,-0.789093017578125,-0.00054931640625
2015-04-16 19:58:12.466,63,47440.038939875,-0.5780487060546875,-0.7966766357421875,0.0043487548828125
2015-04-16 19:58:12.493,64,47440.04866345834,-0.578094482421875,-0.7995147705078125,-0.00054931640625
2015-04-16 19:58:12.494,65,47440.05837466667,-0.5771942138671875,-0.796630859375,-0.003509521484375
2015-04-16 19:58:12.495,66,47440.06809433334,-0.58197021484375,-0.7957305908203125,-0.00543212890625
2015-04-16 19:58:12.495,67,47440.07781195833,-0.5951690673828125,-0.798736572265625,-0.0043182373046875
2015-04-16 19:58:12.504,68,47440.08765341667,-0.5990142822265625,-0.7883148193359375,-0.000396728515625
2015-04-16 19:58:12.516,69,47440.097245625,-0.5922698974609375,-0.7987060546875,0.0005645751953125
2015-04-16 19:58:12.525,70,47440.107068375,-0.59332275390625,-0.7873077392578125,-0.000457763671875
2015-04-16 19:58:12.535,71,47440.11678845833,-0.5895538330078125,-0.7882080078125,-0.0014801025390625
2015-04-16 19:58:12.545,72,47440.12650545833,-0.5924072265625,-0.7844390869140625,-0.00146484375
2015-04-16 19:58:12.568,73,47440.136114,-0.59527587890625,-0.7835235595703125,-0.0024261474609375
2015-04-16 19:58:12.594,74,47440.14582962501,-0.5980987548828125,-0.779754638671875,0.00152587890625
2015-04-16 19:58:12.595,75,47440.15555225001,-0.602874755859375,-0.776947021484375,-0.0004119873046875
2015-04-16 19:58:12.595,76,47440.16526791667,-0.6028289794921875,-0.77886962890625,0.0025482177734375
2015-04-16 19:58:12.597,77,47440.17499129167,-0.59521484375,-0.783538818359375,0.0015106201171875
2015-04-16 19:58:12.602,78,47440.18470179167,-0.5961456298828125,-0.7873382568359375,0.00054931640625
2015-04-16 19:58:12.612,79,47440.19442462501,-0.5931854248046875,-0.7930450439453125,0.006439208984375
2015-04-16 19:58:12.622,80,47440.20418808333,-0.602752685546875,-0.789337158203125,0.002593994140625
2015-04-16 19:58:12.632,81,47440.213861625,-0.6083221435546875,-0.793212890625,0.008544921875
2015-04-16 19:58:12.642,82,47440.22368716667,-0.6129913330078125,-0.795196533203125,0.01153564453125
2015-04-16 19:58:12.652,83,47440.23336504167,-0.6055145263671875,-0.7903289794921875,0.008514404296875
2015-04-16 19:58:12.667,84,47440.24300729167,-0.600799560546875,-0.7864837646484375,0.008453369140625
2015-04-16 19:58:12.695,85,47440.25272858333,-0.595062255859375,-0.7892913818359375,0.0103607177734375
2015-04-16 19:58:12.695,86,47440.26247591667,-0.5904388427734375,-0.7834930419921875,0.0053863525390625
2015-04-16 19:58:12.696,87,47440.27216408333,-0.5923309326171875,-0.7787628173828125,0.008331298828125
2015-04-16 19:58:12.700,88,47440.28188045834,-0.5980377197265625,-0.7778778076171875,0.0083770751953125
2015-04-16 19:58:12.711,89,47440.2916005,-0.6045989990234375,-0.7855682373046875,0.00750732421875
2015-04-16 19:58:12.719,90,47440.30142875,-0.59991455078125,-0.785491943359375,0.0045166015625
2015-04-16 19:58:12.730,91,47440.31103208334,-0.597991943359375,-0.783599853515625,0.0084075927734375
2015-04-16 19:58:12.740,92,47440.320746875,-0.6047210693359375,-0.7779388427734375,0.0035247802734375
2015-04-16 19:58:12.751,93,47440.33058570834,-0.6065826416015625,-0.7808074951171875,0.0035552978515625
2015-04-16 19:58:12.767,94,47440.34017908334,-0.6046600341796875,-0.783660888671875,0.004547119140625
2015-04-16 19:58:12.796,95,47440.34989608334,-0.614959716796875,-0.7999420166015625,0.0037384033203125
2015-04-16 19:58:12.797,96,47440.35961708333,-0.6158905029296875,-0.8046875,0.0018157958984375
2015-04-16 19:58:12.798,97,47440.369333625,-0.615875244140625,-0.806610107421875,0.0028076171875
2015-04-16 19:58:12.799,98,47440.379051875,-0.613922119140625,-0.80755615234375,0.0057373046875
2015-04-16 19:58:12.809,99,47440.388893625,-0.622467041015625,-0.8152313232421875,0.0009307861328125
2015-04-16 19:58:12.818,100,47440.39848933333,-0.6308441162109375,-0.822021484375,0.0069427490234375
2015-04-16 19:58:12.829,101,47440.40832729167,-0.6205291748046875,-0.817138671875,0.003875732421875
2015-04-16 19:58:12.838,102,47440.41802945833,-0.626129150390625,-0.8162689208984375,0.00982666015625
2015-04-16 19:58:12.848,103,47440.42763625,-0.632781982421875,-0.81634521484375,0.0069427490234375
2015-04-16 19:58:12.867,104,47440.43735583334,-0.6318511962890625,-0.8125152587890625,0.0078887939453125
2015-04-16 19:58:12.898,105,47440.44706908333,-0.6138763427734375,-0.8075714111328125,0.0096588134765625
2015-04-16 19:58:12.898,106,47440.45678854167,-0.618621826171875,-0.8076171875,0.00872802734375
2015-04-16 19:58:12.899,107,47440.46650354167,-0.6166229248046875,-0.8123626708984375,0.0136260986328125
2015-04-16 19:58:12.899,108,47440.47622291667,-0.6129150390625,-0.8085174560546875,0.0106201171875
2015-04-16 19:58:12.906,109,47440.48605420833,-0.610076904296875,-0.8046722412109375,0.012542724609375
2015-04-16 19:58:12.915,110,47440.49565575,-0.6137847900390625,-0.8076019287109375,0.0165252685546875
2015-04-16 19:58:12.926,111,47440.50548804167,-0.6101531982421875,-0.7932586669921875,0.012481689453125
2015-04-16 19:58:12.935,112,47440.51519970834,-0.6054840087890625,-0.7874908447265625,0.0114288330078125
2015-04-16 19:58:12.945,113,47440.52481066667,-0.6063995361328125,-0.7865753173828125,0.014373779296875
2015-04-16 19:58:12.968,114,47440.53463675,-0.606414794921875,-0.7855987548828125,0.013397216796875
2015-04-16 19:58:13.001,115,47440.54423691667,-0.601715087890625,-0.7855377197265625,0.011383056640625
2015-04-16 19:58:13.001,116,47440.55395708334,-0.5979461669921875,-0.790252685546875,0.0084381103515625
2015-04-16 19:58:13.003,117,47440.56367329167,-0.5996856689453125,-0.7950592041015625,0.016326904296875
2015-04-16 19:58:13.003,118,47440.57339254167,-0.609161376953125,-0.7980194091796875,0.01446533203125
2015-04-16 19:58:13.003,119,47440.5831105,-0.6157073974609375,-0.8018951416015625,0.017486572265625
2015-04-16 19:58:13.014,120,47440.59282387501,-0.61669921875,-0.800018310546875,0.015533447265625
2015-04-16 19:58:13.023,121,47440.60265308333,-0.6158447265625,-0.7904815673828125,0.0144805908203125
2015-04-16 19:58:13.032,122,47440.61225904167,-0.6110992431640625,-0.790435791015625,0.0154266357421875
2015-04-16 19:58:13.043,123,47440.6221305,-0.6044921875,-0.7884521484375,0.0153656005859375
2015-04-16 19:58:13.051,124,47440.63169375,-0.6016845703125,-0.787445068359375,0.012359619140625
2015-04-16 19:58:13.099,125,47440.64140945834,-0.6044921875,-0.78656005859375,0.015350341796875
2015-04-16 19:58:13.100,126,47440.651125375,-0.6121368408203125,-0.782806396484375,0.011474609375
2015-04-16 19:58:13.101,127,47440.66086166667,-0.6094207763671875,-0.7685089111328125,0.0103912353515625
2015-04-16 19:58:13.101,128,47440.670563125,-0.6094207763671875,-0.7666015625,0.0113677978515625
2015-04-16 19:58:13.102,129,47440.68027783334,-0.59722900390625,-0.761688232421875,0.006317138671875
2015-04-16 19:58:13.110,130,47440.690112875,-0.5944061279296875,-0.7540435791015625,0.0082244873046875
2015-04-16 19:58:13.120,131,47440.699838375,-0.5953521728515625,-0.7635650634765625,0.0033721923828125
2015-04-16 19:58:13.133,132,47440.70921008334,-0.59625244140625,-0.7702178955078125,0.00146484375
2015-04-16 19:58:13.134,133,47440.71894508334,-0.6084747314453125,-0.776092529296875,0.006500244140625
2015-04-16 19:58:13.146,134,47440.728992875,-0.61322021484375,-0.7808837890625,0.0026397705078125
2015-04-16 19:58:13.153,135,47440.738701875,-0.6198272705078125,-0.7800140380859375,0.0046844482421875
2015-04-16 19:58:13.195,136,47440.74830604167,-0.6075439453125,-0.7855682373046875,-0.0003204345703125
2015-04-16 19:58:13.195,137,47440.75802366667,-0.610382080078125,-0.79034423828125,-0.0022430419921875
2015-04-16 19:58:13.196,138,47440.76774075,-0.6085357666015625,-0.783660888671875,-0.0032806396484375
2015-04-16 19:58:13.197,139,47440.777460625,-0.6009979248046875,-0.7797698974609375,-0.00238037109375
2015-04-16 19:58:13.201,140,47440.787178375,-0.6094818115234375,-0.7846221923828125,-0.004241943359375
2015-04-16 19:58:13.213,141,47440.79688883333,-0.6254425048828125,-0.7943267822265625,0.001861572265625
2015-04-16 19:58:13.223,142,47440.80671375,-0.6168060302734375,-0.802825927734375,0.0057373046875
2015-04-16 19:58:13.233,143,47440.81642925,-0.609344482421875,-0.7970123291015625,-0.0002593994140625
2015-04-16 19:58:13.243,144,47440.82614587501,-0.6083221435546875,-0.794158935546875,0.0075836181640625
2015-04-16 19:58:13.252,145,47440.83586008334,-0.6092529296875,-0.8017730712890625,0.0046844482421875
2015-04-16 19:58:13.297,146,47440.84546616667,-0.61785888671875,-0.793304443359375,0.00177001953125
2015-04-16 19:58:13.297,147,47440.85518195834,-0.622528076171875,-0.78863525390625,0.0115966796875
2015-04-16 19:58:13.298,148,47440.86489775001,-0.610382080078125,-0.7818145751953125,0.0026397705078125
2015-04-16 19:58:13.298,149,47440.87461683334,-0.614990234375,-0.7885284423828125,0.00762939453125
2015-04-16 19:58:13.301,150,47440.88433095834,-0.614105224609375,-0.780914306640625,0.0065765380859375
2015-04-16 19:58:13.312,151,47440.894045375,-0.6093902587890625,-0.7799072265625,0.00653076171875
2015-04-16 19:58:13.320,152,47440.90389029167,-0.6027984619140625,-0.7741241455078125,0.0074310302734375
2015-04-16 19:58:13.329,153,47440.913483,-0.6056671142578125,-0.7693939208984375,0.0084228515625
2015-04-16 19:58:13.339,154,47440.923196,-0.59344482421875,-0.757843017578125,0.0062713623046875
2015-04-16 19:58:13.349,155,47440.93291429167,-0.580230712890625,-0.7481842041015625,0.010009765625
2015-04-16 19:58:13.396,156,47440.94262829167,-0.58587646484375,-0.7558441162109375,0.008148193359375
2015-04-16 19:58:13.398,157,47440.95234425,-0.589630126953125,-0.760650634765625,0.008209228515625
2015-04-16 19:58:13.399,158,47440.96206333334,-0.5943756103515625,-0.7588043212890625,0.00726318359375
2015-04-16 19:58:13.399,159,47440.971783125,-0.6094818115234375,-0.77227783203125,0.0035552978515625
2015-04-16 19:58:13.400,160,47440.98149716667,-0.607421875,-0.7827606201171875,0.0104522705078125
2015-04-16 19:58:13.407,161,47440.991212,-0.6131744384765625,-0.778045654296875,0.008514404296875
2015-04-16 19:58:13.416,162,47441.00093275,-0.6047821044921875,-0.7731781005859375,0.0005645751953125
2015-04-16 19:58:13.427,163,47441.01077341667,-0.6036834716796875,-0.7817535400390625,0.007476806640625
2015-04-16 19:58:13.437,164,47441.02048633333,-0.6018829345703125,-0.7731475830078125,0.0054473876953125
2015-04-16 19:58:13.446,165,47441.03008133334,-0.6019744873046875,-0.7721710205078125,-0.001434326171875
2015-04-16 19:58:13.498,166,47441.0397975,-0.6150054931640625,-0.7951812744140625,0.00274658203125
2015-04-16 19:58:13.498,167,47441.04951195834,-0.6243438720703125,-0.81146240234375,0.0038909912109375
2015-04-16 19:58:13.499,168,47441.059233875,-0.6300201416015625,-0.8105926513671875,0.0049285888671875
2015-04-16 19:58:13.499,169,47441.0689425,-0.6149444580078125,-0.80279541015625,0.003753662109375
2015-04-16 19:58:13.500,170,47441.07865845833,-0.6150054931640625,-0.7970733642578125,0.0007781982421875
2015-04-16 19:58:13.504,171,47441.08838025,-0.6075286865234375,-0.78271484375,0.0016326904296875
2015-04-16 19:58:13.514,172,47441.09809666667,-0.6114044189453125,-0.7770538330078125,-0.0013275146484375
2015-04-16 19:58:13.524,173,47441.107809875,-0.603790283203125,-0.769378662109375,0.0064239501953125
2015-04-16 19:58:13.534,174,47441.117544,-0.614105224609375,-0.780914306640625,0.0065765380859375
2015-04-16 19:58:13.544,175,47441.127352125,-0.6159820556640625,-0.7799835205078125,0.0095367431640625
2015-04-16 19:58:13.566,176,47441.13707108334,-0.609344482421875,-0.783721923828125,0.008514404296875
2015-04-16 19:58:13.596,177,47441.14667933334,-0.6102294921875,-0.7875518798828125,0.010498046875
2015-04-16 19:58:13.597,178,47441.15639483334,-0.60552978515625,-0.786529541015625,0.0084991455078125
2015-04-16 19:58:13.597,179,47441.16611216667,-0.600799560546875,-0.7836456298828125,0.0103912353515625
2015-04-16 19:58:13.598,180,47441.17583179167,-0.6017913818359375,-0.786468505859375,0.0045318603515625
2015-04-16 19:58:13.602,181,47441.18566558333,-0.6045684814453125,-0.7893829345703125,0.0084991455078125
2015-04-16 19:58:13.611,182,47441.19526829167,-0.6101531982421875,-0.7904205322265625,0.0154266357421875
2015-04-16 19:58:13.622,183,47441.20502325,-0.60736083984375,-0.7894287109375,0.0114593505859375
2015-04-16 19:58:13.631,184,47441.21471108334,-0.6035614013671875,-0.799835205078125,0.006561279296875
2015-04-16 19:58:13.640,185,47441.22442208334,-0.611114501953125,-0.7989654541015625,0.00762939453125
2015-04-16 19:58:13.651,186,47441.2341405,-0.600799560546875,-0.7950286865234375,0.0035858154296875
2015-04-16 19:58:13.666,187,47441.24385591667,-0.5960693359375,-0.7921142578125,0.0045166015625
2015-04-16 19:58:13.694,188,47441.25357575,-0.5894775390625,-0.7863311767578125,0.0044097900390625
2015-04-16 19:58:13.694,189,47441.26329479167,-0.598052978515625,-0.7845306396484375,0.002532958984375
2015-04-16 19:58:13.695,190,47441.27301091667,-0.5951690673828125,-0.7911376953125,0.0005645751953125
2015-04-16 19:58:13.700,191,47441.28273241667,-0.5979766845703125,-0.7949981689453125,0.0025787353515625
2015-04-16 19:58:13.709,192,47441.29255795834,-0.6007232666015625,-0.8016815185546875,0.005584716796875
2015-04-16 19:58:13.719,193,47441.30216470834,-0.6083526611328125,-0.800811767578125,0.0027008056640625
2015-04-16 19:58:13.728,194,47441.31192729167,-0.602752685546875,-0.7902679443359375,0.001617431640625
2015-04-16 19:58:13.737,195,47441.32160095833,-0.595184326171875,-0.787353515625,0.00250244140625
2015-04-16 19:58:13.747,196,47441.33135754167,-0.589599609375,-0.777740478515625,0.00042724609375
2015-04-16 19:58:13.766,197,47441.34103979167,-0.5885772705078125,-0.785369873046875,0.00244140625
2015-04-16 19:58:13.792,198,47441.35075120834,-0.59228515625,-0.794921875,0.0025177001953125
2015-04-16 19:58:13.794,199,47441.360472375,-0.5922698974609375,-0.797760009765625,0.001556396484375
2015-04-16 19:58:13.795,200,47441.37018708334,-0.6016998291015625,-0.8007354736328125,0.004608154296875
2015-04-16 19:58:13.796,201,47441.37990683334,-0.605438232421875,-0.79888916015625,0.0075836181640625
2015-04-16 19:58:13.806,202,47441.389623875,-0.6026611328125,-0.795989990234375,0.0055694580078125
2015-04-16 19:58:13.816,203,47441.399344875,-0.5894622802734375,-0.79296875,0.001495361328125
2015-04-16 19:58:13.824,204,47441.409056625,-0.5847015380859375,-0.7948455810546875,0.00341796875
2015-04-16 19:58:13.834,205,47441.41877333334,-0.5828094482421875,-0.7967071533203125,0.0014495849609375
2015-04-16 19:58:13.844,206,47441.428493125,-0.5893096923828125,-0.7987213134765625,0.010345458984375
2015-04-16 19:58:13.869,207,47441.4382115,-0.60546875,-0.8026885986328125,0.0046539306640625
2015-04-16 19:58:13.897,208,47441.447928,-0.61114501953125,-0.8037109375,0.00372314453125
2015-04-16 19:58:13.898,209,47441.457649625,-0.6129608154296875,-0.808502197265625,0.0066986083984375
2015-04-16 19:58:13.899,210,47441.46736154167,-0.605438232421875,-0.8055419921875,0.004669189453125
2015-04-16 19:58:13.899,211,47441.47708258333,-0.5941009521484375,-0.796875,0.0064544677734375
2015-04-16 19:58:13.903,212,47441.48679858333,-0.589447021484375,-0.7939300537109375,0.0034637451171875
2015-04-16 19:58:13.915,213,47441.49651616667,-0.591278076171875,-0.800628662109375,0.0045166015625
2015-04-16 19:58:13.924,214,47441.50634208334,-0.5932159423828125,-0.793975830078125,0.0045013427734375
2015-04-16 19:58:13.936,215,47441.51595145834,-0.5884552001953125,-0.7967987060546875,0.00445556640625
2015-04-16 19:58:13.944,216,47441.52578645833,-0.5950775146484375,-0.791168212890625,0.0074462890625
2015-04-16 19:58:13.953,217,47441.53549654167,-0.59979248046875,-0.79693603515625,0.0065155029296875
2015-04-16 19:58:13.968,218,47441.54511533333,-0.6092987060546875,-0.797027587890625,0.003662109375
2015-04-16 19:58:13.994,219,47441.55482320834,-0.59515380859375,-0.788299560546875,0.004486083984375
2015-04-16 19:58:13.994,220,47441.56454016667,-0.581939697265625,-0.7871856689453125,0.00140380859375
2015-04-16 19:58:13.995,221,47441.57426191667,-0.5724639892578125,-0.787078857421875,0.0012969970703125
2015-04-16 19:58:14.002,222,47441.5839835,-0.5734710693359375,-0.78802490234375,-0.0016326904296875
2015-04-16 19:58:14.012,223,47441.59380395833,-0.5791015625,-0.785247802734375,0.003326416015625
2015-04-16 19:58:14.023,224,47441.60352095834,-0.60943603515625,-0.7884368896484375,-0.00128173828125
2015-04-16 19:58:14.033,225,47441.61325058334,-0.596160888671875,-0.783538818359375,0.00152587890625
2015-04-16 19:58:14.043,226,47441.62284341667,-0.5876617431640625,-0.7881927490234375,-0.001495361328125
2015-04-16 19:58:14.067,227,47441.63267020834,-0.5819549560546875,-0.7881317138671875,0.00042724609375
2015-04-16 19:58:14.091,228,47441.64227654167,-0.587646484375,-0.777740478515625,0.0053253173828125
2015-04-16 19:58:14.092,229,47441.65199366667,-0.584930419921875,-0.773895263671875,-0.0016021728515625
2015-04-16 19:58:14.093,230,47441.66170858333,-0.5905303955078125,-0.7777557373046875,0.001434326171875
2015-04-16 19:58:14.093,231,47441.67142791667,-0.5953369140625,-0.7721099853515625,-0.001495361328125
2015-04-16 19:58:14.100,232,47441.68115404167,-0.5849151611328125,-0.7691497802734375,0.0023193359375
2015-04-16 19:58:14.116,233,47441.69281075001,-0.570709228515625,-0.771820068359375,-0.0007476806640625
2015-04-16 19:58:14.116,234,47441.70254575001,-0.5725250244140625,-0.7775726318359375,0.003204345703125
2015-04-16 19:58:14.132,235,47441.712238125,-0.590576171875,-0.7777557373046875,-0.00152587890625
2015-04-16 19:58:14.144,236,47441.72195891667,-0.59429931640625,-0.7816162109375,0.0005035400390625
2015-04-16 19:58:14.152,237,47441.7317315,-0.599090576171875,-0.7769012451171875,-0.000457763671875
2015-04-16 19:58:14.169,238,47441.74138975,-0.5935211181640625,-0.77301025390625,-0.0074005126953125
2015-04-16 19:58:14.195,239,47441.75111029167,-0.5905303955078125,-0.7777557373046875,0.001434326171875
2015-04-16 19:58:14.196,240,47441.76082700001,-0.5858917236328125,-0.7824249267578125,-0.0084075927734375
2015-04-16 19:58:14.196,241,47441.77054879167,-0.5847015380859375,-0.8024444580078125,-0.0004730224609375
2015-04-16 19:58:14.200,242,47441.780261875,-0.5997772216796875,-0.8102264404296875,0.000701904296875
2015-04-16 19:58:14.212,243,47441.78998729167,-0.63543701171875,-0.8667449951171875,-0.00653076171875
2015-04-16 19:58:14.220,244,47441.799808875,-0.6851043701171875,-0.92633056640625,-0.0008392333984375
2015-04-16 19:58:14.230,245,47441.80941945834,-0.7158660888671875,-0.9847412109375,0.002685546875
2015-04-16 19:58:14.239,246,47441.81913558333,-0.7167510986328125,-1.001861572265625,-0.00213623046875
2015-04-16 19:58:14.248,247,47441.82885354167,-0.73175048828125,-1.040069580078125,-0.0116119384765625
2015-04-16 19:58:14.267,248,47441.83857129167,-0.773651123046875,-1.119552612304688,-0.002960205078125
2015-04-16 19:58:14.292,249,47441.848284625,-0.771240234375,-1.0814208984375,-0.01397705078125
2015-04-16 19:58:14.293,250,47441.85800679167,-0.79754638671875,-1.107421875,-0.0135955810546875
2015-04-16 19:58:14.293,251,47441.86772333334,-0.82159423828125,-1.183807373046875,-0.012969970703125
2015-04-16 19:58:14.297,252,47441.87743937501,-0.937530517578125,-1.247940063476562,-0.00958251953125
2015-04-16 19:58:14.307,253,47441.88726633334,-0.926483154296875,-1.20501708984375,-0.0079345703125
2015-04-16 19:58:14.316,254,47441.89687412501,-0.973358154296875,-1.240814208984375,0.0084075927734375
2015-04-16 19:58:14.326,255,47441.90659279167,-0.9090118408203125,-1.224868774414062,0.0126190185546875
2015-04-16 19:58:14.336,256,47441.91630629167,-0.8733367919921875,-1.283538818359375,0.0292510986328125
2015-04-16 19:58:14.345,257,47441.92602508334,-0.816558837890625,-1.284774780273438,0.0267333984375
2015-04-16 19:58:14.368,258,47441.93574233333,-0.81597900390625,-1.249542236328125,0.018707275390625
2015-04-16 19:58:14.398,259,47441.94545925,-0.8557891845703125,-1.232879638671875,0.0248870849609375
2015-04-16 19:58:14.399,260,47441.95517933334,-0.868438720703125,-1.1778564453125,0.0286712646484375
2015-04-16 19:58:14.399,261,47441.966838375,-0.885498046875,-1.0628662109375,0.020416259765625
2015-04-16 19:58:14.400,262,47441.976558,-0.8364715576171875,-1.020492553710938,0.0295562744140625
2015-04-16 19:58:14.405,263,47441.98627379167,-0.8203125,-1.026016235351562,0.0304107666015625
2015-04-16 19:58:14.416,264,47441.99599154167,-0.849884033203125,-1.003494262695312,0.025665283203125
2015-04-16 19:58:14.426,265,47442.00570966667,-0.856903076171875,-0.956939697265625,0.023529052734375
2015-04-16 19:58:14.435,266,47442.01542691667,-0.8395233154296875,-0.887237548828125,0.0151519775390625
2015-04-16 19:58:14.446,267,47442.02514483334,-0.869232177734375,-0.8380889892578125,0.0152130126953125
2015-04-16 19:58:14.468,268,47442.03497141667,-0.8065185546875,-0.7545623779296875,0.00634765625
2015-04-16 19:58:14.495,269,47442.04457675001,-0.7703857421875,-0.757049560546875,0.0177764892578125
2015-04-16 19:58:14.495,270,47442.05429825,-0.7775421142578125,-0.6876678466796875,0.01654052734375
2015-04-16 19:58:14.496,271,47442.06401566667,-0.8275604248046875,-0.5959014892578125,0.007720947265625
2015-04-16 19:58:14.497,272,47442.07373,-0.889068603515625,-0.4937744140625,-0.00396728515625
2015-04-16 19:58:14.504,273,47442.08357445834,-0.943756103515625,-0.5248565673828125,-0.0042724609375
2015-04-16 19:58:14.512,274,47442.09316916667,-0.8972625732421875,-0.64996337890625,0.0057220458984375
2015-04-16 19:58:14.523,275,47442.10288879167,-0.85076904296875,-0.6456451416015625,0.0150604248046875
2015-04-16 19:58:14.532,276,47442.11260345834,-0.832763671875,-0.55877685546875,-0.00714111328125
2015-04-16 19:58:14.544,277,47442.12427837501,-0.8253631591796875,-0.6339263916015625,0.009857177734375
2015-04-16 19:58:14.568,278,47442.13408954167,-0.8488311767578125,-0.654205322265625,0.01312255859375
2015-04-16 19:58:14.594,279,47442.14369791667,-0.856231689453125,-0.5771484375,-0.002899169921875
2015-04-16 19:58:14.594,280,47442.15341866667,-0.78863525390625,-0.5116424560546875,-0.009765625
2015-04-16 19:58:14.595,281,47442.16313550001,-0.766204833984375,-0.4904022216796875,-0.0189208984375
2015-04-16 19:58:14.595,282,47442.17285379167,-0.7489166259765625,-0.525421142578125,-0.0198974609375
2015-04-16 19:58:14.603,283,47442.18257487501,-0.72735595703125,-0.5061187744140625,-0.027069091796875
2015-04-16 19:58:14.612,284,47442.19228991667,-0.6283721923828125,-0.494415283203125,-0.053619384765625
2015-04-16 19:58:14.622,285,47442.202117375,-0.7306671142578125,-0.60882568359375,-0.0481414794921875
2015-04-16 19:58:14.632,286,47442.21172495834,-0.8833770751953125,-0.7743682861328125,-0.016387939453125
2015-04-16 19:58:14.643,287,47442.22155050001,-0.8404083251953125,-0.709136962890625,-0.0259552001953125
2015-04-16 19:58:14.651,288,47442.23127229167,-0.8459014892578125,-0.6225738525390625,-0.0341949462890625
2015-04-16 19:58:14.695,289,47442.24087220833,-0.7952423095703125,-0.5743865966796875,-0.04376220703125
2015-04-16 19:58:14.695,290,47442.25059283333,-0.7733306884765625,-0.579864501953125,-0.037078857421875
2015-04-16 19:58:14.696,291,47442.26033054167,-0.705596923828125,-0.534332275390625,-0.044830322265625
2015-04-16 19:58:14.697,292,47442.270031125,-0.7104339599609375,-0.514434814453125,-0.0409393310546875
2015-04-16 19:58:14.700,293,47442.27974387501,-0.637786865234375,-0.5821685791015625,-0.027557373046875
2015-04-16 19:58:14.709,294,47442.28956983334,-0.8666839599609375,-0.7095184326171875,-0.008026123046875
2015-04-16 19:58:14.719,295,47442.29928570834,-0.84661865234375,-0.6264495849609375,-0.0184478759765625
2015-04-16 19:58:14.729,296,47442.30890020834,-0.8960113525390625,-0.6013336181640625,-0.017120361328125
2015-04-16 19:58:14.740,297,47442.31872483333,-0.825592041015625,-0.5224761962890625,-0.0181884765625
2015-04-16 19:58:14.748,298,47442.328435625,-0.77813720703125,-0.5286407470703125,-0.012725830078125
2015-04-16 19:58:14.792,299,47442.33815033334,-0.780242919921875,-0.5114898681640625,-0.0196685791015625
2015-04-16 19:58:14.792,300,47442.347758125,-0.733673095703125,-0.5167236328125,-0.00927734375
2015-04-16 19:58:14.793,301,47442.35747766667,-0.7316741943359375,-0.5338134765625,-0.01116943359375
2015-04-16 19:58:14.793,302,47442.367198625,-0.77886962890625,-0.543914794921875,-0.0047760009765625
2015-04-16 19:58:14.796,303,47442.37691483334,-0.8112640380859375,-0.5071868896484375,0.0002593994140625
2015-04-16 19:58:14.806,304,47442.386629375,-0.7777252197265625,-0.444915771484375,-0.0062713623046875
2015-04-16 19:58:14.816,305,47442.39638187501,-0.8433685302734375,-0.521820068359375,-0.0003509521484375
2015-04-16 19:58:14.826,306,47442.4060715,-0.794647216796875,-0.4536895751953125,-0.00115966796875
2015-04-16 19:58:14.836,307,47442.41578429167,-0.751312255859375,-0.424652099609375,-0.001708984375
2015-04-16 19:58:14.845,308,47442.42550158333,-0.7554168701171875,-0.4122467041015625,-0.0194091796875
2015-04-16 19:58:14.884,309,47442.43521875,-0.776397705078125,-0.403900146484375,-0.0271148681640625
2015-04-16 19:58:14.916,310,47442.4449385,-0.7950897216796875,-0.426971435546875,-0.02093505859375
2015-04-16 19:58:14.917,311,47442.45465591667,-0.78668212890625,-0.4202117919921875,-0.0259552001953125
2015-04-16 19:58:14.918,312,47442.46437433334,-0.8564605712890625,-0.44671630859375,-0.019256591796875
2015-04-16 19:58:14.919,313,47442.47408833334,-0.84527587890625,-0.4256591796875,-0.02044677734375
2015-04-16 19:58:14.920,314,47442.483803875,-0.8105926513671875,-0.3776702880859375,-0.021026611328125
2015-04-16 19:58:14.920,315,47442.493521625,-0.7899932861328125,-0.3593292236328125,-0.027191162109375
2015-04-16 19:58:14.922,316,47442.50323912501,-0.777099609375,-0.3191986083984375,-0.033416748046875
2015-04-16 19:58:14.934,317,47442.51296008334,-0.775970458984375,-0.341064453125,-0.0323333740234375
2015-04-16 19:58:14.943,318,47442.52268050001,-0.793060302734375,-0.3279571533203125,-0.0273284912109375
2015-04-16 19:58:14.953,319,47442.532501125,-0.7295684814453125,-0.3148956298828125,-0.0162200927734375
2015-04-16 19:58:14.966,320,47442.54210745834,-0.74041748046875,-0.375946044921875,-0.0118865966796875
2015-04-16 19:58:14.999,321,47442.55182525,-0.8292999267578125,-0.39410400390625,-0.0119171142578125
2015-04-16 19:58:15.000,322,47442.561545375,-0.8514556884765625,-0.33062744140625,-0.0051422119140625
2015-04-16 19:58:15.001,323,47442.57126329167,-0.8494110107421875,-0.321136474609375,0.012451171875
2015-04-16 19:58:15.002,324,47442.58098241667,-0.78424072265625,-0.2890167236328125,0.0175628662109375
2015-04-16 19:58:15.011,325,47442.59080754167,-0.8501434326171875,-0.3335723876953125,0.0223388671875
2015-04-16 19:58:15.020,326,47442.60041258334,-0.6682281494140625,-0.3995208740234375,0.1407470703125
2015-04-16 19:58:15.030,327,47442.610139,-1.02447509765625,-0.3810882568359375,-0.0149993896484375
2015-04-16 19:58:15.040,328,47442.61995845834,-0.5360870361328125,-0.161285400390625,-0.0493011474609375
2015-04-16 19:58:15.051,329,47442.629677375,-0.72869873046875,-0.3835296630859375,0.0135650634765625
2015-04-16 19:58:15.065,330,47442.63928595834,-1.100784301757812,-0.4459686279296875,0.052825927734375
2015-04-16 19:58:15.092,331,47442.6490015,-0.8130340576171875,-0.280029296875,0.0678863525390625
2015-04-16 19:58:15.093,332,47442.65872,-0.8325653076171875,-0.3496551513671875,0.053680419921875
2015-04-16 19:58:15.093,333,47442.66844150001,-0.714447021484375,-0.2606201171875,0.0128021240234375
2015-04-16 19:58:15.098,334,47442.67816004167,-0.788330078125,-0.1652679443359375,-0.0085296630859375
2015-04-16 19:58:15.107,335,47442.687884625,-0.501556396484375,-0.354034423828125,-0.0516204833984375
2015-04-16 19:58:15.118,336,47442.6975925,-0.787322998046875,-0.3224945068359375,0.0531158447265625
2015-04-16 19:58:15.129,337,47442.70925379167,-0.66748046875,-0.2880706787109375,0.114654541015625
2015-04-16 19:58:15.139,338,47442.71897058334,-0.6352691650390625,-0.4111480712890625,0.04718017578125
2015-04-16 19:58:15.148,339,47442.72868545834,-0.80078125,-0.275787353515625,-0.00787353515625
2015-04-16 19:58:15.167,340,47442.73840866667,-0.5094451904296875,-0.3132171630859375,-0.0517425537109375
2015-04-16 19:58:15.192,341,47442.74811833334,-0.7088470458984375,-0.2773284912109375,-0.0765228271484375
2015-04-16 19:58:15.193,342,47442.75783970833,-0.6341552734375,-0.41754150390625,-0.018585205078125
2015-04-16 19:58:15.194,343,47442.76756025,-0.6377410888671875,-0.2920379638671875,-0.0034637451171875
2015-04-16 19:58:15.197,344,47442.77727733333,-0.3905181884765625,-0.24432373046875,-0.0434112548828125
2015-04-16 19:58:15.207,345,47442.78699383334,-0.32513427734375,-0.0018768310546875,-0.047210693359375
2015-04-16 19:58:15.216,346,47442.79670825,-0.3778228759765625,-0.2563629150390625,-0.0945587158203125
2015-04-16 19:58:15.227,347,47442.80655075,-0.3840789794921875,-0.4080810546875,-0.0043487548828125
2015-04-16 19:58:15.235,348,47442.81614579167,-0.4828643798828125,-0.1939697265625,-0.0535736083984375
2015-04-16 19:58:15.246,349,47442.825866375,-0.5550689697265625,-0.22509765625,-0.0890655517578125
2015-04-16 19:58:15.272,350,47442.83558229167,-0.562835693359375,-0.0833587646484375,-0.0965728759765625
2015-04-16 19:58:15.302,351,47442.84530016667,-0.7241973876953125,-0.2271270751953125,-0.0628662109375
2015-04-16 19:58:15.302,352,47442.85501970834,-0.473968505859375,-0.2737274169921875,-0.069976806640625
2015-04-16 19:58:15.303,353,47442.86473666667,-0.6352386474609375,-0.219451904296875,-0.061798095703125
2015-04-16 19:58:15.304,354,47442.87445275,-0.8287506103515625,-0.259796142578125,-0.0400848388671875
2015-04-16 19:58:15.304,355,47442.88417483334,-1.032943725585938,-0.181243896484375,-0.0414581298828125
2015-04-16 19:58:15.316,356,47442.89388975,-1.017318725585938,-0.241973876953125,-0.040313720703125
2015-04-16 19:58:15.323,357,47442.903603125,-1.078872680664062,-0.24835205078125,-0.0446014404296875
2015-04-16 19:58:15.333,358,47442.91332704167,-1.053359985351562,-0.219573974609375,-0.0322265625
2015-04-16 19:58:15.344,359,47442.92312491667,-1.0218505859375,-0.1411590576171875,-0.040771484375
2015-04-16 19:58:15.353,360,47442.93275783334,-0.9630889892578125,-0.0538177490234375,-0.0584869384765625
2015-04-16 19:58:15.368,361,47442.94247183334,-0.9708404541015625,-0.111114501953125,-0.032562255859375
2015-04-16 19:58:15.395,362,47442.952191,-1.099700927734375,-0.2096710205078125,-0.022003173828125
2015-04-16 19:58:15.396,363,47442.96190683333,-1.234085083007812,-0.18939208984375,-0.0060577392578125
2015-04-16 19:58:15.396,364,47442.97162854167,-1.318740844726562,-0.1361236572265625,-0.005523681640625
2015-04-16 19:58:15.401,365,47442.98134729167,-1.33782958984375,-0.10589599609375,0.0004119873046875
2015-04-16 19:58:15.412,366,47442.991167,-1.358505249023438,-0.1432037353515625,-0.008056640625
2015-04-16 19:58:15.421,367,47443.00089054167,-1.305679321289062,-0.2187957763671875,0.0065460205078125
2015-04-16 19:58:15.430,368,47443.01049162501,-1.19403076171875,-0.2136993408203125,0.00347900390625
2015-04-16 19:58:15.440,369,47443.02031845834,-1.11688232421875,-0.146209716796875,0.0023956298828125
2015-04-16 19:58:15.450,370,47443.03003666667,-1.13165283203125,-0.1654815673828125,0.0212860107421875
2015-04-16 19:58:15.469,371,47443.03970170834,-1.177169799804688,-0.1517486572265625,0.0246124267578125
2015-04-16 19:58:15.498,372,47443.04935879167,-1.200347900390625,-0.1929779052734375,0.0397796630859375
2015-04-16 19:58:15.499,373,47443.05907716667,-1.143157958984375,-0.1437225341796875,0.02325439453125
2015-04-16 19:58:15.499,374,47443.068797375,-1.077896118164062,-0.1287384033203125,0.0264739990234375
2015-04-16 19:58:15.499,375,47443.078510625,-0.98797607421875,-0.1400299072265625,0.0178070068359375
2015-04-16 19:58:15.508,376,47443.088344875,-0.870361328125,-0.1596527099609375,0.02264404296875
2015-04-16 19:58:15.517,377,47443.097947625,-0.78692626953125,-0.16729736328125,0.02581787109375
2015-04-16 19:58:15.530,378,47443.10777583333,-0.760711669921875,-0.1441192626953125,0.0166168212890625
2015-04-16 19:58:15.537,379,47443.11748695833,-0.8115997314453125,-0.1798858642578125,0.01434326171875
2015-04-16 19:58:15.546,380,47443.12709825001,-0.8781890869140625,-0.1644134521484375,-0.00079345703125
2015-04-16 19:58:15.569,381,47443.13681658333,-0.8952484130859375,-0.157012939453125,0.0032501220703125
2015-04-16 19:58:15.599,382,47443.14652904167,-0.8555450439453125,-0.1536865234375,-0.0010528564453125
2015-04-16 19:58:15.599,383,47443.15624879167,-0.8232421875,-0.1723480224609375,-0.0022735595703125
2015-04-16 19:58:15.600,384,47443.16596195834,-0.7935638427734375,-0.20819091796875,0.0025177001953125
2015-04-16 19:58:15.601,385,47443.17567866667,-0.8192901611328125,-0.1970367431640625,-0.0041351318359375
2015-04-16 19:58:15.604,386,47443.18539691667,-0.839080810546875,-0.2124786376953125,-0.0048828125
2015-04-16 19:58:15.616,387,47443.195114375,-0.92620849609375,-0.2087249755859375,-0.0050201416015625
2015-04-16 19:58:15.624,388,47443.20483204167,-0.985931396484375,-0.2046356201171875,-0.007415771484375
2015-04-16 19:58:15.634,389,47443.21454691667,-0.9917144775390625,-0.184722900390625,-0.0045166015625
2015-04-16 19:58:15.646,390,47443.22620708334,-0.9048919677734375,-0.1618194580078125,-0.0133209228515625
2015-04-16 19:58:15.682,391,47443.23592620833,-0.8649139404296875,-0.197509765625,-0.0174407958984375
2015-04-16 19:58:15.706,392,47443.24564370834,-0.8724822998046875,-0.2004547119140625,-0.0183563232421875
2015-04-16 19:58:15.706,393,47443.25536233334,-0.8773956298828125,-0.196624755859375,-0.0320892333984375
2015-04-16 19:58:15.707,394,47443.26507916667,-0.9568023681640625,-0.21087646484375,-0.028289794921875
2015-04-16 19:58:15.707,395,47443.27479429167,-1.052505493164062,-0.2109832763671875,-0.03424072265625
2015-04-16 19:58:15.708,396,47443.2845145,-1.142303466796875,-0.2281951904296875,-0.032318115234375
2015-04-16 19:58:15.714,397,47443.294231875,-1.168899536132812,-0.22943115234375,-0.038909912109375
2015-04-16 19:58:15.724,398,47443.30394633333,-1.139541625976562,-0.230987548828125,-0.041168212890625
2015-04-16 19:58:15.734,399,47443.31377350001,-1.111862182617188,-0.2592315673828125,-0.0393218994140625
2015-04-16 19:58:15.743,400,47443.32350191667,-1.037948608398438,-0.2660064697265625,-0.0380401611328125
2015-04-16 19:58:15.753,401,47443.333099625,-0.992431640625,-0.274993896484375,-0.0384368896484375
2015-04-16 19:58:15.796,402,47443.342816875,-0.9676971435546875,-0.285186767578125,-0.034698486328125
2015-04-16 19:58:15.797,403,47443.35253033334,-0.960174560546875,-0.2784576416015625,-0.0347900390625
2015-04-16 19:58:15.797,404,47443.362247625,-0.946075439453125,-0.270660400390625,-0.038909912109375
2015-04-16 19:58:15.798,405,47443.37196208334,-1.013229370117188,-0.278076171875,-0.0372314453125
2015-04-16 19:58:15.802,406,47443.38184166667,-0.9849090576171875,-0.2644500732421875,-0.035614013671875
2015-04-16 19:58:15.811,407,47443.391400875,-0.9969329833984375,-0.2912445068359375,-0.0294647216796875
2015-04-16 19:58:15.821,408,47443.40122420833,-0.964599609375,-0.29473876953125,-0.0209197998046875
2015-04-16 19:58:15.830,409,47443.410840375,-0.9107513427734375,-0.2836456298828125,-0.023468017578125
2015-04-16 19:58:15.840,410,47443.420547875,-0.904052734375,-0.2816925048828125,-0.0176544189453125
2015-04-16 19:58:15.851,411,47443.43037870833,-0.9304962158203125,-0.2715606689453125,-0.0066375732421875
2015-04-16 19:58:15.891,412,47443.43998183333,-0.83062744140625,-0.2247161865234375,-0.0176544189453125
2015-04-16 19:58:15.892,413,47443.44970200001,-0.7668914794921875,-0.23358154296875,0.0014190673828125
2015-04-16 19:58:15.892,414,47443.45941958333,-0.701263427734375,-0.261383056640625,0.0077972412109375
2015-04-16 19:58:15.893,415,47443.46913658334,-0.7132568359375,-0.2806243896484375,0.0207672119140625
2015-04-16 19:58:15.900,416,47443.47885745834,-0.7259063720703125,-0.23223876953125,0.0216217041015625
2015-04-16 19:58:15.908,417,47443.488567875,-0.758056640625,-0.2411651611328125,0.02001953125
2015-04-16 19:58:15.918,418,47443.49829216667,-0.89019775390625,-0.2978515625,0.019622802734375
2015-04-16 19:58:15.928,419,47443.50800254167,-0.9954071044921875,-0.2933197021484375,0.0137176513671875
2015-04-16 19:58:15.938,420,47443.5177225,-1.01739501953125,-0.2659759521484375,0.0137939453125
2015-04-16 19:58:15.947,421,47443.52744254167,-0.924957275390625,-0.2163848876953125,0.013641357421875
2015-04-16 19:58:15.996,422,47443.53715866667,-0.7516326904296875,-0.2191925048828125,0.01690673828125
2015-04-16 19:58:15.997,423,47443.54687320834,-0.6135711669921875,-0.1976318359375,0.015472412109375
2015-04-16 19:58:15.998,424,47443.55659391667,-0.5057830810546875,-0.1773681640625,0.014312744140625
2015-04-16 19:58:15.998,425,47443.56631104167,-0.6569671630859375,-0.2342376708984375,0.007232666015625
2015-04-16 19:58:15.999,426,47443.576027875,-0.8168182373046875,-0.2503662109375,0.0108184814453125
2015-04-16 19:58:16.006,427,47443.58587070834,-0.9110260009765625,-0.2199554443359375,-0.008056640625
2015-04-16 19:58:16.016,428,47443.59740933334,-0.78759765625,-0.1528472900390625,-0.0184173583984375
2015-04-16 19:58:16.026,429,47443.60712225,-0.94720458984375,-0.20416259765625,-0.015655517578125
2015-04-16 19:58:16.037,430,47443.61684229167,-1.04449462890625,-0.219573974609375,-0.00579833984375
2015-04-16 19:58:16.047,431,47443.62656066667,-1.096176147460938,-0.1772613525390625,-0.025146484375
2015-04-16 19:58:16.094,432,47443.63627512501,-1.149246215820312,-0.2148895263671875,-0.04901123046875
2015-04-16 19:58:16.095,433,47443.64598975,-1.109634399414062,-0.2096405029296875,-0.059234619140625
2015-04-16 19:58:16.096,434,47443.65571041667,-1.026153564453125,-0.216339111328125,-0.0501861572265625
2015-04-16 19:58:16.096,435,47443.6654285,-0.97222900390625,-0.195770263671875,-0.041961669921875
2015-04-16 19:58:16.099,436,47443.6770915,-1.03240966796875,-0.2374114990234375,-0.0333251953125
2015-04-16 19:58:16.107,437,47443.68680691667,-0.900634765625,-0.164459228515625,-0.0526275634765625
2015-04-16 19:58:16.116,438,47443.69652691667,-0.978729248046875,-0.214874267578125,-0.0437774658203125
2015-04-16 19:58:16.126,439,47443.706352875,-1.0902099609375,-0.2684326171875,-0.0542144775390625
2015-04-16 19:58:16.136,440,47443.715960375,-1.12982177734375,-0.272735595703125,-0.0439910888671875
2015-04-16 19:58:16.145,441,47443.72567775,-1.05157470703125,-0.224273681640625,-0.04302978515625
2015-04-16 19:58:16.202,442,47443.73538920833,-0.9680938720703125,-0.231903076171875,-0.0349578857421875
2015-04-16 19:58:16.203,443,47443.74510716667,-0.906341552734375,-0.2464599609375,-0.0286102294921875
2015-04-16 19:58:16.203,444,47443.75482666667,-0.88067626953125,-0.2366943359375,-0.0151519775390625
2015-04-16 19:58:16.204,445,47443.76454495834,-0.904510498046875,-0.2245941162109375,-0.0208740234375
2015-04-16 19:58:16.204,446,47443.774265,-0.94061279296875,-0.208831787109375,-0.0196075439453125
2015-04-16 19:58:16.205,447,47443.78397670834,-1.0391845703125,-0.2994384765625,-0.0064239501953125
2015-04-16 19:58:16.214,448,47443.79369954167,-1.04815673828125,-0.2519378662109375,-0.015411376953125
2015-04-16 19:58:16.223,449,47443.80352766667,-1.0146484375,-0.20770263671875,-0.0336456298828125
2015-04-16 19:58:16.234,450,47443.81322108334,-0.959197998046875,-0.2471160888671875,-0.01531982421875
2015-04-16 19:58:16.243,451,47443.82285370833,-0.93365478515625,-0.2335357666015625,-0.0087432861328125
2015-04-16 19:58:16.252,452,47443.83257158333,-1.001708984375,-0.24383544921875,-0.0060882568359375
2015-04-16 19:58:16.265,453,47443.84228645833,-0.9836883544921875,-0.2369842529296875,0.0005950927734375
2015-04-16 19:58:16.291,454,47443.85200554167,-0.9923553466796875,-0.228515625,-0.0052642822265625
2015-04-16 19:58:16.292,455,47443.861721875,-1.034957885742188,-0.242279052734375,-0.013641357421875
2015-04-16 19:58:16.293,456,47443.8714445,-1.021636962890625,-0.2620849609375,-0.0205230712890625
2015-04-16 19:58:16.302,457,47443.88116620834,-0.948638916015625,-0.1613006591796875,-0.0286102294921875
2015-04-16 19:58:16.312,458,47443.89088025,-0.92724609375,-0.2200927734375,-0.018707275390625
2015-04-16 19:58:16.321,459,47443.900595375,-0.938507080078125,-0.23260498046875,-0.017547607421875
2015-04-16 19:58:16.330,460,47443.91031575,-0.9283294677734375,-0.2039337158203125,-0.0197601318359375
2015-04-16 19:58:16.340,461,47443.920139125,-0.983856201171875,-0.2616119384765625,-0.0267791748046875
2015-04-16 19:58:16.352,462,47443.93179954167,-0.9317626953125,-0.248687744140625,-0.018524169921875
2015-04-16 19:58:16.368,463,47443.94140670833,-0.9245452880859375,-0.2000885009765625,-0.017852783203125
2015-04-16 19:58:16.394,464,47443.95112354167,-0.9302825927734375,-0.18304443359375,-0.012969970703125
2015-04-16 19:58:16.394,465,47443.96084154167,-0.9222869873046875,-0.22674560546875,-0.004974365234375
2015-04-16 19:58:16.395,466,47443.97056233334,-0.90869140625,-0.1779937744140625,-0.024017333984375
2015-04-16 19:58:16.401,467,47443.98027341667,-0.9121246337890625,-0.212310791015625,-0.0159454345703125
2015-04-16 19:58:16.410,468,47443.99010491667,-0.9400634765625,-0.259307861328125,-0.0066070556640625
2015-04-16 19:58:16.420,469,47443.99971045834,-0.846160888671875,-0.2725372314453125,-0.001556396484375
2015-04-16 19:58:16.429,470,47444.00942716667,-0.784942626953125,-0.23944091796875,-0.008209228515625
2015-04-16 19:58:16.439,471,47444.01924875,-0.765716552734375,-0.1716156005859375,-0.0205078125
2015-04-16 19:58:16.450,472,47444.02886283334,-0.82110595703125,-0.2388458251953125,-0.0206146240234375
2015-04-16 19:58:16.470,473,47444.03857679167,-0.85833740234375,-0.197418212890625,-0.022430419921875
2015-04-16 19:58:16.496,474,47444.04828975,-0.90087890625,-0.2083587646484375,-0.02294921875
2015-04-16 19:58:16.497,475,47444.05800725,-0.94482421875,-0.277374267578125,-0.01824951171875
2015-04-16 19:58:16.498,476,47444.06772604167,-0.91448974609375,-0.2874908447265625,-0.022430419921875
2015-04-16 19:58:16.498,477,47444.077440875,-0.888031005859375,-0.2881317138671875,-0.0265960693359375
2015-04-16 19:58:16.507,478,47444.08715945834,-0.87890625,-0.248046875,-0.03179931640625
2015-04-16 19:58:16.517,479,47444.09687495833,-0.8603973388671875,-0.183135986328125,-0.0264129638671875
2015-04-16 19:58:16.527,480,47444.106700375,-0.8137359619140625,-0.100738525390625,-0.03216552734375
2015-04-16 19:58:16.536,481,47444.11642029167,-0.8462066650390625,-0.175384521484375,-0.02264404296875
2015-04-16 19:58:16.546,482,47444.12602595834,-0.963958740234375,-0.2452545166015625,-0.0162506103515625
2015-04-16 19:58:16.567,483,47444.13574991667,-0.970062255859375,-0.291046142578125,-0.002227783203125
2015-04-16 19:58:16.593,484,47444.14545604167,-0.938507080078125,-0.3458709716796875,-0.0091400146484375
2015-04-16 19:58:16.594,485,47444.15517133334,-0.98712158203125,-0.319732666015625,-0.0196075439453125
2015-04-16 19:58:16.594,486,47444.16488841667,-1.027252197265625,-0.2935028076171875,-0.0321197509765625
2015-04-16 19:58:16.596,487,47444.17460104167,-0.94366455078125,-0.213531494140625,-0.039215087890625
2015-04-16 19:58:16.605,488,47444.18443104167,-0.8846282958984375,-0.1490478515625,-0.0509033203125
2015-04-16 19:58:16.614,489,47444.19404720834,-0.9402008056640625,-0.2573699951171875,-0.0164337158203125
2015-04-16 19:58:16.624,490,47444.20386216667,-1.016403198242188,-0.298248291015625,-0.000762939453125
2015-04-16 19:58:16.634,491,47444.21346995833,-0.98114013671875,-0.292236328125,0.02044677734375
2015-04-16 19:58:16.643,492,47444.22330191667,-0.8532257080078125,-0.2974395751953125,0.0231781005859375
2015-04-16 19:58:16.653,493,47444.23301425,-0.8180694580078125,-0.2028045654296875,0.0145111083984375
2015-04-16 19:58:16.666,494,47444.24262200001,-0.8846435546875,-0.1768798828125,0.005218505859375
2015-04-16 19:58:16.692,495,47444.25234033334,-0.921112060546875,-0.1458282470703125,-0.01324462890625
2015-04-16 19:58:16.693,496,47444.26205816667,-0.8979034423828125,-0.2036285400390625,-0.0102386474609375
2015-04-16 19:58:16.694,497,47444.27178045834,-0.968505859375,-0.26055908203125,-0.01025390625
2015-04-16 19:58:16.702,498,47444.28149945834,-0.947509765625,-0.282196044921875,-0.010345458984375
2015-04-16 19:58:16.712,499,47444.29123633334,-0.9445037841796875,-0.3031158447265625,-0.0092926025390625
2015-04-16 19:58:16.721,500,47444.30103866667,-0.9594879150390625,-0.219512939453125,-0.0213470458984375
2015-04-16 19:58:16.730,501,47444.31064604167,-0.8633575439453125,-0.155609130859375,-0.0196533203125
2015-04-16 19:58:16.740,502,47444.32047579167,-0.851104736328125,-0.15069580078125,-0.020751953125
2015-04-16 19:58:16.750,503,47444.33019183334,-0.9139251708984375,-0.2247161865234375,-0.015869140625
2015-04-16 19:58:16.768,504,47444.33979629167,-1.061569213867188,-0.2548980712890625,-0.028045654296875
2015-04-16 19:58:16.795,505,47444.34951175001,-1.011932373046875,-0.3000335693359375,-0.02239990234375
2015-04-16 19:58:16.796,506,47444.35922883334,-0.981842041015625,-0.2977142333984375,-0.037445068359375
2015-04-16 19:58:16.796,507,47444.370894,-0.96868896484375,-0.2965850830078125,-0.0454254150390625
2015-04-16 19:58:16.800,508,47444.38061945834,-0.9993896484375,-0.2578887939453125,-0.0551605224609375
2015-04-16 19:58:16.817,509,47444.39043595834,-0.97637939453125,-0.1995086669921875,-0.072357177734375
2015-04-16 19:58:16.819,510,47444.40004775,-0.9977264404296875,-0.243560791015625,-0.0650634765625
2015-04-16 19:58:16.830,511,47444.40976308333,-1.064254760742188,-0.29864501953125,-0.0405731201171875
2015-04-16 19:58:16.840,512,47444.4195865,-1.042160034179688,-0.3108367919921875,-0.023040771484375
2015-04-16 19:58:16.849,513,47444.429200125,-0.9595947265625,-0.3014068603515625,-0.0032501220703125
2015-04-16 19:58:16.869,514,47444.43891479167,-0.888671875,-0.274932861328125,0.0047607421875
2015-04-16 19:58:16.895,515,47444.44863004167,-0.80194091796875,-0.224456787109375,0.0046539306640625
2015-04-16 19:58:16.896,516,47444.45834658333,-0.88751220703125,-0.1873626708984375,-0.0015869140625
2015-04-16 19:58:16.896,517,47444.46806645834,-0.912200927734375,-0.1894989013671875,-0.0091705322265625
2015-04-16 19:58:16.899,518,47444.47778775,-1.0308837890625,-0.25372314453125,0.0040740966796875
2015-04-16 19:58:16.908,519,47444.48761991667,-1.0986328125,-0.3077850341796875,0.0059661865234375
2015-04-16 19:58:16.918,520,47444.49733258333,-1.134796142578125,-0.3834381103515625,0.0204315185546875
2015-04-16 19:58:16.928,521,47444.5069405,-1.02020263671875,-0.3697967529296875,0.030059814453125
2015-04-16 19:58:16.937,522,47444.51671920834,-0.8536376953125,-0.3507843017578125,0.0342559814453125
2015-04-16 19:58:16.946,523,47444.52638029167,-0.836212158203125,-0.29534912109375,0.0220184326171875
2015-04-16 19:58:16.968,524,47444.53620812501,-0.83892822265625,-0.2916259765625,0.0348052978515625
2015-04-16 19:58:16.997,525,47444.54581258334,-0.9438629150390625,-0.317535400390625,0.0330047607421875
2015-04-16 19:58:16.998,526,47444.55553391667,-1.013595581054688,-0.35833740234375,0.0358123779296875
2015-04-16 19:58:16.998,527,47444.56525083334,-1.15679931640625,-0.455108642578125,0.035736083984375
2015-04-16 19:58:16.999,528,47444.574966625,-1.176422119140625,-0.4962310791015625,0.032196044921875
2015-04-16 19:58:17.005,529,47444.58479350001,-1.147216796875,-0.4844512939453125,0.027923583984375
2015-04-16 19:58:17.014,530,47444.59440775,-1.06500244140625,-0.4739837646484375,0.02020263671875
2015-04-16 19:58:17.024,531,47444.604119125,-1.031173706054688,-0.4469451904296875,0.0167999267578125
2015-04-16 19:58:17.034,532,47444.61394325001,-0.966888427734375,-0.433837890625,0.01611328125
2015-04-16 19:58:17.044,533,47444.62354958334,-1.015274047851562,-0.4239044189453125,0.0145721435546875
2015-04-16 19:58:17.068,534,47444.63532350001,-0.976470947265625,-0.4320068359375,0.0073699951171875
2015-04-16 19:58:17.094,535,47444.64493183334,-1.048416137695312,-0.4261932373046875,0.013916015625
2015-04-16 19:58:17.095,536,47444.65464779167,-1.09637451171875,-0.4676513671875,0.0155487060546875
2015-04-16 19:58:17.096,537,47444.66436841667,-1.103759765625,-0.4820556640625,0.0216064453125
2015-04-16 19:58:17.099,538,47444.67408804167,-1.06793212890625,-0.4834747314453125,0.0084991455078125
2015-04-16 19:58:17.104,539,47444.68379983334,-1.010223388671875,-0.480926513671875,0.0069732666015625
2015-04-16 19:58:17.114,540,47444.69352266667,-0.9034271240234375,-0.477752685546875,-0.0078277587890625
2015-04-16 19:58:17.125,541,47444.703348,-0.879913330078125,-0.4527587890625,-0.0052337646484375
2015-04-16 19:58:17.133,542,47444.71306370834,-0.9000701904296875,-0.42156982421875,-0.0091400146484375
2015-04-16 19:58:17.143,543,47444.72267370833,-0.949981689453125,-0.4459381103515625,-0.0026397705078125
2015-04-16 19:58:17.153,544,47444.73259245833,-1.061431884765625,-0.4786376953125,0.0015411376953125
2015-04-16 19:58:17.205,545,47444.74210725,-1.088775634765625,-0.489410400390625,0.0038299560546875
2015-04-16 19:58:17.206,546,47444.75182758334,-1.065780639648438,-0.5044097900390625,0.0164337158203125
2015-04-16 19:58:17.206,547,47444.76154525,-1.0194091796875,-0.50579833984375,0.0140380859375
2015-04-16 19:58:17.207,548,47444.77126395833,-0.9927978515625,-0.5064697265625,0.020660400390625
2015-04-16 19:58:17.207,549,47444.780982625,-1.002120971679688,-0.5123291015625,0.0296173095703125
2015-04-16 19:58:17.212,550,47444.790700875,-0.9842376708984375,-0.504486083984375,0.02545166015625
2015-04-16 19:58:17.221,551,47444.80055066667,-1.008636474609375,-0.52667236328125,0.0297393798828125
2015-04-16 19:58:17.231,552,47444.809845875,-1.093414306640625,-0.5752410888671875,0.0357208251953125
2015-04-16 19:58:17.232,553,47444.819580875,-1.10369873046875,-0.5915374755859375,0.0368804931640625
2015-04-16 19:58:17.242,554,47444.829694875,-1.112060546875,-0.607818603515625,0.03900146484375
2015-04-16 19:58:17.252,555,47444.83941258334,-1.099594116210938,-0.6286163330078125,0.03997802734375
2015-04-16 19:58:17.295,556,47444.84902045834,-1.083969116210938,-0.576080322265625,0.034637451171875
2015-04-16 19:58:17.295,557,47444.85873879167,-1.127304077148438,-0.6051177978515625,0.0352020263671875
2015-04-16 19:58:17.296,558,47444.868455125,-1.171218872070312,-0.67132568359375,0.0428314208984375
2015-04-16 19:58:17.297,559,47444.87817675,-1.191360473632812,-0.7571868896484375,0.046417236328125
2015-04-16 19:58:17.300,560,47444.88789620833,-1.141143798828125,-0.7642364501953125,0.04498291015625
2015-04-16 19:58:17.310,561,47444.897615875,-1.100372314453125,-0.76568603515625,0.04852294921875
2015-04-16 19:58:17.320,562,47444.90744237501,-1.058837890625,-0.7414398193359375,0.0519256591796875
2015-04-16 19:58:17.329,563,47444.91705475,-1.022659301757812,-0.667694091796875,0.0374603271484375
2015-04-16 19:58:17.339,564,47444.92677116667,-0.9813079833984375,-0.6244049072265625,0.0378265380859375
2015-04-16 19:58:17.349,565,47444.93649004167,-0.9668426513671875,-0.5547332763671875,0.0245819091796875
2015-04-16 19:58:17.393,566,47444.94620558334,-0.928009033203125,-0.5514373779296875,0.026153564453125
2015-04-16 19:58:17.394,567,47444.95595791667,-0.9091033935546875,-0.5360107421875,0.03375244140625
2015-04-16 19:58:17.395,568,47444.965642125,-0.855377197265625,-0.5087432861328125,0.029144287109375
2015-04-16 19:58:17.396,569,47444.97536129167,-0.81024169921875,-0.4711151123046875,0.026580810546875
2015-04-16 19:58:17.397,570,47444.98508145833,-0.7970428466796875,-0.4538421630859375,0.033233642578125
2015-04-16 19:58:17.407,571,47444.994906,-0.806549072265625,-0.455841064453125,0.028411865234375
2015-04-16 19:58:17.417,572,47445.004672625,-0.789886474609375,-0.4099578857421875,0.02508544921875
2015-04-16 19:58:17.427,573,47445.01435795834,-0.7755126953125,-0.4279022216796875,0.027984619140625
2015-04-16 19:58:17.436,574,47445.023960125,-0.82366943359375,-0.446533203125,0.027557373046875
2015-04-16 19:58:17.446,575,47445.03367479167,-0.81231689453125,-0.4558868408203125,0.0225830078125
2015-04-16 19:58:17.469,576,47445.04349954167,-0.78961181640625,-0.448028564453125,0.0262603759765625
2015-04-16 19:58:17.496,577,47445.05310720834,-0.79248046875,-0.4499664306640625,0.022369384765625
2015-04-16 19:58:17.497,578,47445.06282891667,-0.81121826171875,-0.477752685546875,0.0207061767578125
2015-04-16 19:58:17.498,579,47445.07254695833,-0.82818603515625,-0.48272705078125,0.0238494873046875
2015-04-16 19:58:17.498,580,47445.08226612501,-0.8109588623046875,-0.497772216796875,0.0286712646484375
2015-04-16 19:58:17.504,581,47445.0919805,-0.814697265625,-0.5092315673828125,0.027801513671875
2015-04-16 19:58:17.514,582,47445.10169683334,-0.833251953125,-0.5465850830078125,0.0350189208984375
2015-04-16 19:58:17.524,583,47445.11152904167,-0.82574462890625,-0.5426788330078125,0.0329742431640625
2015-04-16 19:58:17.534,584,47445.12127233334,-0.8567657470703125,-0.5715789794921875,0.033416748046875
2015-04-16 19:58:17.542,585,47445.13085129167,-0.87646484375,-0.5879974365234375,0.0376129150390625
2015-04-16 19:58:17.553,586,47445.14056483334,-0.8945159912109375,-0.5834503173828125,0.035797119140625
2015-04-16 19:58:17.568,587,47445.15028158334,-0.8727874755859375,-0.5736846923828125,0.037506103515625
2015-04-16 19:58:17.597,588,47445.15999941667,-0.8709564208984375,-0.57269287109375,0.0335693359375
2015-04-16 19:58:17.598,589,47445.16971766667,-0.850189208984375,-0.5591583251953125,0.036224365234375
2015-04-16 19:58:17.599,590,47445.17943591667,-0.8474884033203125,-0.5410308837890625,0.0361328125
2015-04-16 19:58:17.600,591,47445.189152375,-0.8399810791015625,-0.5352325439453125,0.0340576171875
2015-04-16 19:58:17.611,592,47445.19897854167,-0.8562164306640625,-0.5201873779296875,0.03216552734375
2015-04-16 19:58:17.620,593,47445.208587,-0.864837646484375,-0.50885009765625,0.0302276611328125
2015-04-16 19:58:17.630,594,47445.21830683334,-0.8563232421875,-0.5040130615234375,0.0330810546875
2015-04-16 19:58:17.640,595,47445.22802595833,-0.8449859619140625,-0.4981689453125,0.0339202880859375
2015-04-16 19:58:17.650,596,47445.23773845834,-0.8224029541015625,-0.486480712890625,0.0297088623046875
2015-04-16 19:58:17.668,597,47445.247458875,-0.8355865478515625,-0.4923553466796875,0.0328216552734375
2015-04-16 19:58:17.695,598,47445.257174125,-0.8421630859375,-0.4971923828125,0.0338897705078125
2015-04-16 19:58:17.695,599,47445.26689333333,-0.8384246826171875,-0.4923858642578125,0.0328521728515625
2015-04-16 19:58:17.696,600,47445.27661179167,-0.8667144775390625,-0.506988525390625,0.033203125
2015-04-16 19:58:17.699,601,47445.28633283333,-0.865875244140625,-0.5069427490234375,0.0243377685546875
2015-04-16 19:58:17.709,602,47445.29616633333,-0.86578369140625,-0.5155181884765625,0.0273284912109375
2015-04-16 19:58:17.718,603,47445.30576900001,-0.841094970703125,-0.5209503173828125,0.0290679931640625
2015-04-16 19:58:17.728,604,47445.31559520834,-0.8541107177734375,-0.5458526611328125,0.03326416015625
2015-04-16 19:58:17.738,605,47445.325316625,-0.84942626953125,-0.5419921875,0.0312347412109375
2015-04-16 19:58:17.749,606,47445.334924,-0.86163330078125,-0.55072021484375,0.0353240966796875
2015-04-16 19:58:17.767,607,47445.34464225001,-0.872955322265625,-0.554656982421875,0.0354461669921875
2015-04-16 19:58:17.792,608,47445.35435429167,-0.896636962890625,-0.551116943359375,0.036651611328125
2015-04-16 19:58:17.793,609,47445.364074875,-0.8636474609375,-0.5421295166015625,0.0303955078125
2015-04-16 19:58:17.794,610,47445.37379241667,-0.847503662109375,-0.5457763671875,0.0312347412109375
2015-04-16 19:58:17.795,611,47445.383506875,-0.819091796875,-0.54736328125,0.031951904296875
2015-04-16 19:58:17.806,612,47445.39333258333,-0.841888427734375,-0.545684814453125,0.0262603759765625
2015-04-16 19:58:17.814,613,47445.40293866667,-0.8370819091796875,-0.54376220703125,0.0340728759765625
2015-04-16 19:58:17.826,614,47445.41276845834,-0.8390960693359375,-0.5352020263671875,0.0291290283203125
2015-04-16 19:58:17.834,615,47445.42248416667,-0.83807373046875,-0.5475616455078125,0.0282135009765625
2015-04-16 19:58:17.845,616,47445.43220033334,-0.86065673828125,-0.5668487548828125,0.0285186767578125
2015-04-16 19:58:17.867,617,47445.44181212501,-0.8587493896484375,-0.57159423828125,0.0275421142578125
2015-04-16 19:58:17.893,618,47445.45152633334,-0.8512115478515625,-0.570526123046875,0.023529052734375
2015-04-16 19:58:17.894,619,47445.46124704167,-0.839874267578125,-0.5675506591796875,0.024383544921875
2015-04-16 19:58:17.895,620,47445.470961625,-0.83514404296875,-0.565582275390625,0.0243377685546875
2015-04-16 19:58:17.895,621,47445.48067620834,-0.8362884521484375,-0.5465545654296875,0.0203094482421875
2015-04-16 19:58:17.902,622,47445.49043358333,-0.824951171875,-0.5426177978515625,0.0211639404296875
2015-04-16 19:58:17.914,623,47445.50011179167,-0.8201141357421875,-0.5596771240234375,0.0182647705078125
2015-04-16 19:58:17.922,624,47445.50983266667,-0.82476806640625,-0.5626068115234375,0.0232391357421875
2015-04-16 19:58:17.931,625,47445.519563375,-0.8332061767578125,-0.574127197265625,0.02239990234375
2015-04-16 19:58:17.941,626,47445.529367,-0.8379058837890625,-0.582733154296875,0.0205230712890625
2015-04-16 19:58:17.951,627,47445.53908125,-0.838836669921875,-0.5742034912109375,0.0263671875
2015-04-16 19:58:17.967,628,47445.54868533334,-0.834197998046875,-0.5636749267578125,0.0243072509765625
2015-04-16 19:58:17.995,629,47445.55840945834,-0.83709716796875,-0.559906005859375,0.023345947265625
2015-04-16 19:58:17.996,630,47445.56812370833,-0.83514404296875,-0.5674896240234375,0.0243377685546875
2015-04-16 19:58:17.996,631,47445.57784241667,-0.8350067138671875,-0.581756591796875,0.0263824462890625
2015-04-16 19:58:17.999,632,47445.587557125,-0.854736328125,-0.5981903076171875,0.0286102294921875
2015-04-16 19:58:18.010,633,47445.59738141667,-0.8699188232421875,-0.597381591796875,0.02581787109375
2015-04-16 19:58:18.019,634,47445.60709683334,-0.872711181640625,-0.6012420654296875,0.0268402099609375
2015-04-16 19:58:18.030,635,47445.61673458334,-0.874725341796875,-0.5955352783203125,0.02093505859375
2015-04-16 19:58:18.039,636,47445.62653104167,-0.8898468017578125,-0.5909576416015625,0.025970458984375
2015-04-16 19:58:18.048,637,47445.63614383333,-0.9056549072265625,-0.62921142578125,0.028289794921875
2015-04-16 19:58:18.068,638,47445.64585495833,-0.92535400390625,-0.6446685791015625,0.031494140625
2015-04-16 19:58:18.094,639,47445.65557166667,-0.923675537109375,-0.6208648681640625,0.029388427734375
2015-04-16 19:58:18.095,640,47445.66528879167,-1.003631591796875,-0.677001953125,0.0383148193359375
2015-04-16 19:58:18.096,641,47445.67501029167,-1.043731689453125,-0.6479034423828125,0.028717041015625
2015-04-16 19:58:18.099,642,47445.68472491667,-1.029693603515625,-0.6363067626953125,0.0236053466796875
2015-04-16 19:58:18.107,643,47445.69454908334,-1.076644897460938,-0.6825408935546875,0.0272369384765625
2015-04-16 19:58:18.116,644,47445.70428275,-1.0709228515625,-0.6881866455078125,0.0272064208984375
2015-04-16 19:58:18.132,645,47445.71386841667,-1.252273559570312,-0.938751220703125,0.0645751953125
2015-04-16 19:58:18.137,646,47445.723588125,-1.310684204101562,-0.9784393310546875,0.0653533935546875
2015-04-16 19:58:18.147,647,47445.73330604167,-1.275680541992188,-0.97235107421875,0.0659637451171875
2015-04-16 19:58:18.180,648,47445.7430255,-1.284408569335938,-0.960968017578125,0.0571441650390625
2015-04-16 19:58:18.207,649,47445.7527415,-1.227493286132812,-0.8784332275390625,0.03851318359375
2015-04-16 19:58:18.208,650,47445.76245691667,-1.178573608398438,-0.8426361083984375,0.033935546875
2015-04-16 19:58:18.208,651,47445.77217641667,-1.155426025390625,-0.7975921630859375,0.019744873046875
2015-04-16 19:58:18.209,652,47445.78189379167,-1.129837036132812,-0.8001556396484375,0.0204925537109375
2015-04-16 19:58:18.210,653,47445.79161066667,-1.09857177734375,-0.803619384765625,0.0202178955078125
2015-04-16 19:58:18.216,654,47445.80132962501,-1.096725463867188,-0.7883758544921875,0.0240325927734375
2015-04-16 19:58:18.226,655,47445.81115266667,-1.073593139648438,-0.7234039306640625,0.020538330078125
2015-04-16 19:58:18.235,656,47445.82076408334,-1.071075439453125,-0.6672515869140625,0.027099609375
2015-04-16 19:58:18.245,657,47445.83048016667,-0.9951171875,-0.5854644775390625,0.0171356201171875
2015-04-16 19:58:18.268,658,47445.84039741667,-0.951904296875,-0.5487823486328125,0.0096893310546875
2015-04-16 19:58:18.295,659,47445.84990720834,-0.951080322265625,-0.52880859375,0.0124969482421875
2015-04-16 19:58:18.296,660,47445.859625625,-0.9586181640625,-0.52130126953125,0.0204010009765625
2015-04-16 19:58:18.296,661,47445.86934625,-0.9156494140625,-0.4532318115234375,0.01373291015625
2015-04-16 19:58:18.298,662,47445.879061125,-0.9033660888671875,-0.4350433349609375,0.020416259765625
2015-04-16 19:58:18.305,663,47445.88888720833,-0.9391326904296875,-0.4592437744140625,0.0247955322265625
2015-04-16 19:58:18.315,664,47445.89850170834,-0.9591064453125,-0.4651336669921875,0.01422119140625
2015-04-16 19:58:18.325,665,47445.90821125,-0.9222412109375,-0.4476165771484375,0.0186920166015625
2015-04-16 19:58:18.334,666,47445.91803625,-0.86859130859375,-0.4051361083984375,0.018951416015625
2015-04-16 19:58:18.344,667,47445.927643625,-0.8769989013671875,-0.4109649658203125,0.0239715576171875
2015-04-16 19:58:18.354,668,47445.93747141667,-0.8544769287109375,-0.3907012939453125,0.02069091796875
2015-04-16 19:58:18.396,669,47445.94708058333,-0.8146514892578125,-0.404510498046875,0.0174407958984375
2015-04-16 19:58:18.397,670,47445.95679979167,-0.8239593505859375,-0.4303131103515625,0.01470947265625
2015-04-16 19:58:18.397,671,47445.96651529167,-0.9001312255859375,-0.4939727783203125,0.018707275390625
2015-04-16 19:58:18.398,672,47445.97623358334,-0.9690399169921875,-0.500518798828125,0.0312042236328125
2015-04-16 19:58:18.404,673,47445.98605695834,-0.8359375,-0.4618682861328125,0.0228424072265625
2015-04-16 19:58:18.414,674,47445.99566683334,-0.9652252197265625,-0.5175933837890625,0.0243682861328125
2015-04-16 19:58:18.423,675,47446.005492,-0.9685516357421875,-0.4491119384765625,0.0250396728515625
2015-04-16 19:58:18.433,676,47446.01510345834,-0.9361572265625,-0.36688232421875,0.0154876708984375
2015-04-16 19:58:18.445,677,47446.02481800001,-0.8065032958984375,-0.36346435546875,0.0112762451171875
2015-04-16 19:58:18.470,678,47446.03464233334,-0.8482666015625,-0.3459014892578125,0.0145263671875
2015-04-16 19:58:18.500,679,47446.04424745834,-0.800262451171875,-0.3186798095703125,0.008056640625
2015-04-16 19:58:18.501,680,47446.05396558333,-0.79425048828125,-0.3671112060546875,0.0052947998046875
2015-04-16 19:58:18.501,681,47446.06368670834,-1.0118408203125,-0.486724853515625,0.0246734619140625
2015-04-16 19:58:18.501,682,47446.07340437501,-0.9550323486328125,-0.3756561279296875,0.0157012939453125
2015-04-16 19:58:18.503,683,47446.08312695834,-0.86297607421875,-0.3041229248046875,-0.0012359619140625
2015-04-16 19:58:18.513,684,47446.09284129167,-0.851348876953125,-0.3363494873046875,-0.0001983642578125
2015-04-16 19:58:18.523,685,47446.10265837501,-0.8265533447265625,-0.3494110107421875,0.0064849853515625
2015-04-16 19:58:18.533,686,47446.11239470834,-0.8304595947265625,-0.337066650390625,0.0045166015625
2015-04-16 19:58:18.542,687,47446.122102,-0.8484649658203125,-0.34393310546875,-0.00018310546875
2015-04-16 19:58:18.552,688,47446.13171420834,-0.8101654052734375,-0.3863372802734375,0.00848388671875
2015-04-16 19:58:18.592,689,47446.14148158333,-0.8699798583984375,-0.3736724853515625,0.00213623046875
2015-04-16 19:58:18.593,690,47446.15114583333,-0.875579833984375,-0.3642578125,0.0139007568359375
2015-04-16 19:58:18.593,691,47446.160865875,-0.900115966796875,-0.3816680908203125,0.0102996826171875
2015-04-16 19:58:18.594,692,47446.17058641667,-0.9180145263671875,-0.3762054443359375,0.0202789306640625
2015-04-16 19:58:18.601,693,47446.180302125,-0.8521728515625,-0.3288116455078125,0.0144805908203125
2015-04-16 19:58:18.610,694,47446.19002554167,-0.889892578125,-0.349212646484375,0.01397705078125
2015-04-16 19:58:18.620,695,47446.199846875,-0.8841705322265625,-0.353912353515625,0.0159149169921875
2015-04-16 19:58:18.629,696,47446.20945833334,-0.8766937255859375,-0.354736328125,0.0060272216796875
2015-04-16 19:58:18.639,697,47446.21917433334,-0.7976226806640625,-0.301483154296875,0.002044677734375
2015-04-16 19:58:18.649,698,47446.22889204167,-0.807159423828125,-0.2987060546875,-0.002777099609375
2015-04-16 19:58:18.694,699,47446.23860725,-0.8684234619140625,-0.3232421875,0.00579833984375
2015-04-16 19:58:18.694,700,47446.2483245,-0.8611907958984375,-0.2822418212890625,0.0035552978515625
2015-04-16 19:58:18.695,701,47446.25804379167,-0.8072357177734375,-0.277801513671875,0.003997802734375
2015-04-16 19:58:18.696,702,47446.26776166667,-0.854339599609375,-0.3059539794921875,0.0055694580078125
2015-04-16 19:58:18.698,703,47446.27748258333,-0.8632659912109375,-0.27459716796875,-0.0072784423828125
2015-04-16 19:58:18.707,704,47446.28720025,-0.8953399658203125,-0.2854461669921875,-0.0049285888671875
2015-04-16 19:58:18.717,705,47446.29703754167,-0.9002227783203125,-0.2769012451171875,-0.0108184814453125
2015-04-16 19:58:18.727,706,47446.30674425,-0.893585205078125,-0.2768402099609375,-0.009918212890625
2015-04-16 19:58:18.736,707,47446.316432375,-0.8954620361328125,-0.2654571533203125,-0.0020904541015625
2015-04-16 19:58:18.746,708,47446.32607391667,-0.8697662353515625,-0.269012451171875,0.005523681640625
2015-04-16 19:58:18.770,709,47446.33578912501,-0.82745361328125,-0.23712158203125,0.00201416015625
2015-04-16 19:58:18.802,710,47446.34745158334,-0.82745361328125,-0.23712158203125,0.00201416015625
2015-04-16 19:58:18.802,711,47446.35717020834,-0.75189208984375,-0.205810546875,0.00408935546875
2015-04-16 19:58:18.803,712,47446.36688583333,-0.7515869140625,-0.2306060791015625,0.0140228271484375
2015-04-16 19:58:18.803,713,47446.37660466667,-0.77923583984375,-0.2128143310546875,0.00927734375
2015-04-16 19:58:18.805,714,47446.38632175,-0.773406982421875,-0.2260894775390625,0.0142059326171875
2015-04-16 19:58:18.818,715,47446.39797862501,-0.9038848876953125,-0.2418670654296875,0.01849365234375
2015-04-16 19:58:18.828,716,47446.40780695833,-0.84088134765625,-0.203033447265625,0.00689697265625
2015-04-16 19:58:18.837,717,47446.41741691667,-0.7452545166015625,-0.2028961181640625,0.0079345703125
2015-04-16 19:58:18.847,718,47446.42716841667,-0.672454833984375,-0.17926025390625,0.0129852294921875
2015-04-16 19:58:18.868,719,47446.43684941667,-0.6033172607421875,-0.1822662353515625,0.0123443603515625
2015-04-16 19:58:18.895,720,47446.44656275,-0.60516357421875,-0.1870574951171875,0.01336669921875
2015-04-16 19:58:18.895,721,47446.456286875,-0.5951690673828125,-0.150726318359375,0.000335693359375
2015-04-16 19:58:18.896,722,47446.46599929167,-0.6753387451171875,-0.1859130859375,0.005218505859375
2015-04-16 19:58:18.897,723,47446.47571479167,-0.742950439453125,-0.14764404296875,-0.003173828125
2015-04-16 19:58:18.905,724,47446.48554454167,-0.724334716796875,-0.116943359375,-0.0093994140625
2015-04-16 19:58:18.915,725,47446.49515425001,-0.6461181640625,-0.086517333984375,-0.0220794677734375
2015-04-16 19:58:18.925,726,47446.504976125,-0.541046142578125,-0.0824737548828125,-0.0221405029296875
2015-04-16 19:58:18.934,727,47446.51458433334,-0.5475921630859375,-0.0920562744140625,-0.0210418701171875
2015-04-16 19:58:18.945,728,47446.524411625,-0.5149078369140625,-0.1450042724609375,-0.0132293701171875
2015-04-16 19:58:18.969,729,47446.534124875,-0.6856231689453125,-0.113616943359375,-0.0176544189453125
2015-04-16 19:58:18.996,730,47446.54373216667,-0.714141845703125,-0.098724365234375,-0.0184173583984375
2015-04-16 19:58:18.997,731,47446.55345154167,-0.8202972412109375,-0.097991943359375,-0.0252532958984375
2015-04-16 19:58:18.998,732,47446.56316541667,-0.8780670166015625,-0.1071929931640625,-0.031524658203125
2015-04-16 19:58:18.998,733,47446.57288583334,-0.8665924072265625,-0.1147003173828125,-0.027679443359375
2015-04-16 19:58:19.003,734,47446.5827125,-0.7826080322265625,-0.089935302734375,-0.035491943359375
2015-04-16 19:58:19.012,735,47446.59231875,-0.73834228515625,-0.03399658203125,-0.0951080322265625
2015-04-16 19:58:19.022,736,47446.60215941667,-1.136184692382812,-0.221343994140625,-0.0677642822265625
2015-04-16 19:58:19.031,737,47446.611751875,-0.6275634765625,0.110260009765625,-0.1617279052734375
2015-04-16 19:58:19.042,738,47446.62157895834,-0.4868927001953125,-0.089874267578125,-0.159149169921875
2015-04-16 19:58:19.051,739,47446.63129491667,-1.152191162109375,-0.166778564453125,0.0440826416015625
2015-04-16 19:58:19.070,740,47446.64092479167,-1.1995849609375,-0.070831298828125,-0.0511932373046875
2015-04-16 19:58:19.099,741,47446.65061470833,-0.9836578369140625,-0.0436859130859375,-0.0327911376953125
2015-04-16 19:58:19.100,742,47446.660335875,-0.9410552978515625,0.0548858642578125,-0.051361083984375
2015-04-16 19:58:19.100,743,47446.67005333334,-1.047409057617188,-0.098724365234375,-0.0161895751953125
2015-04-16 19:58:19.101,744,47446.67976825,-1.120834350585938,-0.071197509765625,0.033477783203125
2015-04-16 19:58:19.110,745,47446.68959433334,-1.031051635742188,-0.0720367431640625,0.0198516845703125
2015-04-16 19:58:19.119,746,47446.69920870833,-1.096664428710938,-0.058441162109375,0.005706787109375
2015-04-16 19:58:19.131,747,47446.70892354167,-1.234207153320312,-0.041900634765625,-0.0038604736328125
2015-04-16 19:58:19.138,748,47446.71863783334,-1.340301513671875,-0.1117401123046875,0.026947021484375
2015-04-16 19:58:19.148,749,47446.72835679167,-1.273910522460938,-0.006317138671875,0.0218658447265625
2015-04-16 19:58:19.182,750,47446.73807754167,-1.0972900390625,-0.065216064453125,0.0273284912109375
2015-04-16 19:58:19.215,751,47446.74779162501,-0.991729736328125,-0.022064208984375,0.013336181640625
2015-04-16 19:58:19.216,752,47446.75751079167,-1.05084228515625,-0.0855865478515625,0.021087646484375
2015-04-16 19:58:19.217,753,47446.76723016667,-1.057769775390625,-0.0656280517578125,0.00732421875
2015-04-16 19:58:19.217,754,47446.77694645834,-1.091949462890625,-0.065032958984375,0.0007781982421875
2015-04-16 19:58:19.218,755,47446.78666825,-1.134445190429688,-0.075042724609375,0.004180908203125
2015-04-16 19:58:19.220,756,47446.79638125,-1.127853393554688,-0.065460205078125,0.00701904296875
2015-04-16 19:58:19.225,757,47446.80610075,-1.0009765625,-0.056427001953125,0.011627197265625
2015-04-16 19:58:19.235,758,47446.81582291667,-0.8713531494140625,-0.057769775390625,0.0035247802734375
2015-04-16 19:58:19.249,759,47446.82553458334,-0.8842315673828125,-0.103607177734375,0.005828857421875
2015-04-16 19:58:19.250,760,47446.83526958334,-0.9079132080078125,-0.0934295654296875,0.0109100341796875
2015-04-16 19:58:19.270,761,47446.84499025,-0.8863372802734375,-0.0731964111328125,0.0086517333984375
2015-04-16 19:58:19.299,762,47446.85470416667,-0.9914398193359375,-0.071533203125,0.0086822509765625
2015-04-16 19:58:19.300,763,47446.86442491667,-0.9603118896484375,-0.06829833984375,0.001495361328125
2015-04-16 19:58:19.300,764,47446.87414233333,-0.909393310546875,-0.0524749755859375,-0.0069427490234375
2015-04-16 19:58:19.301,765,47446.883861125,-0.85174560546875,-0.0365753173828125,-0.006591796875
2015-04-16 19:58:19.306,766,47446.893691,-0.86480712890625,-0.0719146728515625,-0.0112152099609375
2015-04-16 19:58:19.315,767,47446.9032985,-0.8128509521484375,-0.070343017578125,-0.0195770263671875
2015-04-16 19:58:19.325,768,47446.91312716667,-0.8195037841796875,-0.07135009765625,-0.0214691162109375
2015-04-16 19:58:19.335,769,47446.92284116667,-0.7799530029296875,-0.0433197021484375,-0.0229644775390625
2015-04-16 19:58:19.346,770,47446.93256804167,-0.7570343017578125,-0.0525970458984375,-0.0133209228515625
2015-04-16 19:58:19.368,771,47446.94227333333,-0.726654052734375,-0.050384521484375,-0.004791259765625
2015-04-16 19:58:19.395,772,47446.95188020833,-0.6479034423828125,-0.066619873046875,-0.002532958984375
2015-04-16 19:58:19.396,773,47446.961599875,-0.6101837158203125,-0.06427001953125,-0.0117340087890625
2015-04-16 19:58:19.397,774,47446.97131604167,-0.59576416015625,-0.0736541748046875,-0.0010223388671875
2015-04-16 19:58:19.399,775,47446.98103075,-0.576995849609375,-0.06768798828125,-0.0110626220703125
2015-04-16 19:58:19.402,776,47446.990748,-0.6241607666015625,-0.0540313720703125,0.00994873046875
2015-04-16 19:58:19.413,777,47447.00046870833,-0.6566162109375,-0.0343780517578125,0.0013427734375
2015-04-16 19:58:19.423,778,47447.010294375,-0.7099456787109375,-0.010223388671875,-0.0090789794921875
2015-04-16 19:58:19.432,779,47447.01990420833,-0.8221282958984375,-0.0009307861328125,-0.037506103515625
2015-04-16 19:58:19.443,780,47447.029732,-0.8148651123046875,-0.053253173828125,-0.0196380615234375
2015-04-16 19:58:19.452,781,47447.03944954167,-0.9251708984375,-0.03155517578125,-0.043243408203125
2015-04-16 19:58:19.496,782,47447.0490595,-1.02154541015625,-0.0289306640625,-0.025634765625
2015-04-16 19:58:19.496,783,47447.058837,-0.9932098388671875,-0.0124359130859375,-0.0220489501953125
2015-04-16 19:58:19.497,784,47447.06850145834,-0.9115753173828125,-0.0106201171875,-0.005157470703125
2015-04-16 19:58:19.497,785,47447.07822004167,-0.7702789306640625,-0.041351318359375,-0.0044097900390625
2015-04-16 19:58:19.500,786,47447.08793554167,-0.6725616455078125,-0.0478973388671875,0.0045013427734375
2015-04-16 19:58:19.510,787,47447.09765254167,-0.8858642578125,-0.045501708984375,-0.0140838623046875
2015-04-16 19:58:19.520,788,47447.10748100001,-1.019866943359375,-0.0709075927734375,0.0069732666015625
2015-04-16 19:58:19.529,789,47447.11709025,-1.124649047851562,-0.026336669921875,-0.0157928466796875
2015-04-16 19:58:19.539,790,47447.12681066667,-1.163360595703125,-0.02490234375,-0.007568359375
2015-04-16 19:58:19.549,791,47447.13654433333,-1.1318359375,-0.0626068115234375,-0.0067138671875
2015-04-16 19:58:19.597,792,47447.14624279167,-0.9388427734375,-0.0242919921875,0.003021240234375
2015-04-16 19:58:19.597,793,47447.15595891667,-0.9239501953125,-0.0325775146484375,-0.022613525390625
2015-04-16 19:58:19.598,794,47447.1656785,-0.919403076171875,-0.0726318359375,0.01385498046875
2015-04-16 19:58:19.598,795,47447.17539758333,-1.0340576171875,-0.05682373046875,0.0168609619140625
2015-04-16 19:58:19.599,796,47447.18511845834,-1.134109497070312,-0.074188232421875,0.0306854248046875
2015-04-16 19:58:19.607,797,47447.19486495834,-1.328125,-0.082122802734375,0.0325927734375
2015-04-16 19:58:19.617,798,47447.20455245834,-1.158218383789062,-0.0525054931640625,0.0082244873046875
2015-04-16 19:58:19.628,799,47447.21438304167,-1.139511108398438,-0.050323486328125,-0.0086669921875
2015-04-16 19:58:19.636,800,47447.22410175001,-0.8958740234375,-0.071380615234375,0.0038299560546875
2015-04-16 19:58:19.646,801,47447.23371383334,-0.7891998291015625,-0.0643768310546875,-0.0188446044921875
2015-04-16 19:58:19.698,802,47447.24353770834,-0.8816375732421875,-0.0911712646484375,-0.00604248046875
2015-04-16 19:58:19.699,803,47447.25314516667,-1.02276611328125,-0.184173583984375,0.0105133056640625
2015-04-16 19:58:19.699,804,47447.26286145834,-1.14404296875,-0.05517578125,0.005157470703125
2015-04-16 19:58:19.700,805,47447.27258141667,-0.965057373046875,-0.064544677734375,0.00250244140625
2015-04-16 19:58:19.700,806,47447.28230045833,-0.789031982421875,-0.0710601806640625,-0.009002685546875
2015-04-16 19:58:19.706,807,47447.29212287501,-0.8495635986328125,-0.072723388671875,-0.0044708251953125
2015-04-16 19:58:19.716,808,47447.30173333333,-0.9850006103515625,-0.1856231689453125,0.001312255859375
2015-04-16 19:58:19.726,809,47447.31155966667,-1.117752075195312,-0.1405487060546875,0.0121917724609375
2015-04-16 19:58:19.735,810,47447.32127754167,-1.214187622070312,-0.1322021484375,0.027801513671875
2015-04-16 19:58:19.745,811,47447.33088825001,-1.115203857421875,-0.076812744140625,0.025604248046875
2015-04-16 19:58:19.797,812,47447.34063083334,-0.971832275390625,-0.1114044189453125,0.03814697265625
2015-04-16 19:58:19.798,813,47447.35032170833,-0.750518798828125,-0.0973968505859375,0.0261077880859375
2015-04-16 19:58:19.798,814,47447.36004079167,-0.667694091796875,-0.06024169921875,0.0084228515625
2015-04-16 19:58:19.799,815,47447.36976083334,-0.7017059326171875,-0.060638427734375,0.0146331787109375
2015-04-16 19:58:19.799,816,47447.37948091667,-0.780853271484375,-0.0882568359375,0.029296875
2015-04-16 19:58:19.804,817,47447.38931000001,-1.09375,-0.1698150634765625,0.02093505859375
2015-04-16 19:58:19.814,818,47447.39891466667,-1.144638061523438,-0.19610595703125,0.025482177734375
2015-04-16 19:58:19.822,819,47447.40863445833,-1.07733154296875,-0.10772705078125,0.0087127685546875
2015-04-16 19:58:19.832,820,47447.41835908333,-0.994781494140625,-0.132476806640625,0.0070343017578125
2015-04-16 19:58:19.842,821,47447.42818016667,-0.8925628662109375,-0.1455535888671875,-0.001739501953125
2015-04-16 19:58:19.852,822,47447.43778770834,-0.807098388671875,-0.0911865234375,-0.026397705078125
2015-04-16 19:58:19.867,823,47447.44750429167,-0.8118743896484375,-0.08837890625,-0.0283355712890625
2015-04-16 19:58:19.895,824,47447.457220625,-0.9620208740234375,-0.1329345703125,-0.0217437744140625
2015-04-16 19:58:19.895,825,47447.46694204167,-1.007736206054688,-0.115325927734375,-0.032196044921875
2015-04-16 19:58:19.897,826,47447.47666062501,-1.104690551757812,-0.169769287109375,-0.0192108154296875
2015-04-16 19:58:19.900,827,47447.48637354167,-1.12646484375,-0.181427001953125,-0.0258026123046875
2015-04-16 19:58:19.913,828,47447.496096,-1.02325439453125,-0.16314697265625,-0.0151214599609375
2015-04-16 19:58:19.920,829,47447.50590454167,-0.9098663330078125,-0.1352081298828125,-0.016357421875
2015-04-16 19:58:19.929,830,47447.51554158334,-0.79364013671875,-0.0930023193359375,-0.00982666015625
2015-04-16 19:58:19.939,831,47447.5253595,-0.752960205078125,-0.07733154296875,-0.00439453125
2015-04-16 19:58:19.950,832,47447.53509316667,-0.780609130859375,-0.0652313232421875,-0.013031005859375
2015-04-16 19:58:19.968,833,47447.544692125,-0.933319091796875,-0.1364898681640625,-0.000396728515625
2015-04-16 19:58:19.997,834,47447.55441679167,-1.009017944335938,-0.1354827880859375,0.004241943359375
2015-04-16 19:58:19.997,835,47447.56417829167,-1.018081665039062,-0.1774749755859375,0.01141357421875
2015-04-16 19:58:19.998,836,47447.57384004167,-0.9615020751953125,-0.1653594970703125,1.52587890625e-05
2015-04-16 19:58:19.998,837,47447.58355858333,-1.026580810546875,-0.194671630859375,0.0037384033203125
2015-04-16 19:58:20.008,838,47447.59341195833,-0.9305877685546875,-0.12884521484375,-0.0053863525390625
2015-04-16 19:58:20.018,839,47447.60299620833,-0.847625732421875,-0.0993194580078125,-0.015167236328125
2015-04-16 19:58:20.028,840,47447.61282033334,-0.84393310546875,-0.0859527587890625,-0.0152587890625
2015-04-16 19:58:20.036,841,47447.62253954167,-0.9312591552734375,-0.1621551513671875,-0.00323486328125
2015-04-16 19:58:20.049,842,47447.63225808334,-0.9604644775390625,-0.1805877685546875,-0.0009002685546875
2015-04-16 19:58:20.066,843,47447.64186270833,-0.9293670654296875,-0.1706695556640625,-0.00811767578125
2015-04-16 19:58:20.094,844,47447.651574875,-0.99249267578125,-0.20758056640625,-0.00439453125
2015-04-16 19:58:20.095,845,47447.66129520834,-1.043914794921875,-0.1719818115234375,-0.0070037841796875
2015-04-16 19:58:20.096,846,47447.67102675,-1.106231689453125,-0.191741943359375,-0.0043487548828125
2015-04-16 19:58:20.097,847,47447.68073204167,-1.003555297851562,-0.1287078857421875,-0.00958251953125
2015-04-16 19:58:20.107,848,47447.69055725,-0.9726715087890625,-0.2054290771484375,-0.007537841796875
2015-04-16 19:58:20.117,849,47447.70016420833,-0.9375152587890625,-0.2050628662109375,0.001953125
2015-04-16 19:58:20.126,850,47447.70988150001,-0.9299468994140625,-0.1926422119140625,0.0086822509765625
2015-04-16 19:58:20.135,851,47447.71960112501,-0.856597900390625,-0.1100006103515625,0.016387939453125
2015-04-16 19:58:20.147,852,47447.72931658334,-0.8397369384765625,-0.072723388671875,0.023895263671875
2015-04-16 19:58:20.170,853,47447.739035125,-0.934722900390625,-0.12811279296875,0.0427703857421875
2015-04-16 19:58:20.202,854,47447.74875225,-0.9591217041015625,-0.137969970703125,0.054840087890625
2015-04-16 19:58:20.203,855,47447.75847170834,-0.9453125,-0.10919189453125,0.0398406982421875
2015-04-16 19:58:20.205,856,47447.76819070834,-0.940673828125,-0.11956787109375,0.027069091796875
2015-04-16 19:58:20.205,857,47447.7779135,-0.87139892578125,-0.1368560791015625,0.0284576416015625
2015-04-16 19:58:20.206,858,47447.78763266667,-0.8209991455078125,-0.073394775390625,0.0080108642578125
2015-04-16 19:58:20.213,859,47447.797348375,-0.8864288330078125,-0.05322265625,0.0124664306640625
2015-04-16 19:58:20.223,860,47447.80717470834,-1.010589599609375,-0.1422271728515625,0.02490234375
2015-04-16 19:58:20.234,861,47447.81678983333,-1.094940185546875,-0.1260833740234375,0.027618408203125
2015-04-16 19:58:20.245,862,47447.82661225001,-1.049880981445312,-0.177947998046875,0.04217529296875
2015-04-16 19:58:20.267,863,47447.83634220833,-0.99969482421875,-0.1783294677734375,0.04071044921875
2015-04-16 19:58:20.294,864,47447.84593195833,-0.9742279052734375,-0.127410888671875,-0.0108489990234375
2015-04-16 19:58:20.295,865,47447.85565079167,-1.088516235351562,-0.1743621826171875,-0.015411376953125
2015-04-16 19:58:20.296,866,47447.86537245833,-1.121429443359375,-0.217529296875,-0.021759033203125
2015-04-16 19:58:20.297,867,47447.875088875,-1.048736572265625,-0.1862640380859375,-0.022613525390625
2015-04-16 19:58:20.305,868,47447.8849185,-0.9453277587890625,-0.18988037109375,-0.00885009765625
2015-04-16 19:58:20.315,869,47447.89452654167,-0.903594970703125,-0.1751861572265625,0.0053863525390625
2015-04-16 19:58:20.325,870,47447.90424504167,-0.909393310546875,-0.1514892578125,0.0112152099609375
2015-04-16 19:58:20.336,871,47447.91598025,-0.938812255859375,-0.1356658935546875,0.015350341796875
2015-04-16 19:58:20.345,872,47447.925642375,-1.048751831054688,-0.1255035400390625,0.0114593505859375
2015-04-16 19:58:20.369,873,47447.93534654167,-1.096954345703125,-0.138397216796875,0.0110015869140625
2015-04-16 19:58:20.399,874,47447.94506270834,-1.119369506835938,-0.1719818115234375,0.0153045654296875
2015-04-16 19:58:20.400,875,47447.95478595833,-1.110748291015625,-0.188995361328125,0.014312744140625
2015-04-16 19:58:20.401,876,47447.96450175,-1.0252685546875,-0.12420654296875,-0.0025177001953125
2015-04-16 19:58:20.401,877,47447.97425533333,-1.010971069335938,-0.1430816650390625,-0.0055084228515625
2015-04-16 19:58:20.404,878,47447.98393766667,-1.07598876953125,-0.2027740478515625,-0.014404296875
2015-04-16 19:58:20.414,879,47447.99365587501,-1.118637084960938,-0.2003936767578125,-0.0169525146484375
2015-04-16 19:58:20.423,880,47448.003486375,-1.1820068359375,-0.2039947509765625,-0.01336669921875
2015-04-16 19:58:20.433,881,47448.01309195834,-1.227127075195312,-0.2387847900390625,-0.00787353515625
2015-04-16 19:58:20.443,882,47448.02292008333,-1.281051635742188,-0.2422637939453125,-0.00634765625
2015-04-16 19:58:20.453,883,47448.03264491667,-1.1981201171875,-0.203216552734375,-0.0142059326171875
2015-04-16 19:58:20.498,884,47448.04224545834,-1.121536254882812,-0.200408935546875,-0.0208587646484375
2015-04-16 19:58:20.498,885,47448.05196679167,-1.130828857421875,-0.2138671875,-0.014801025390625
2015-04-16 19:58:20.499,886,47448.06168291667,-1.151397705078125,-0.245513916015625,-0.0134735107421875
2015-04-16 19:58:20.500,887,47448.071399875,-1.241287231445312,-0.2579498291015625,-0.0145111083984375
2015-04-16 19:58:20.501,888,47448.08111820833,-1.332244873046875,-0.2513580322265625,-0.0175933837890625
2015-04-16 19:58:20.513,889,47448.09094441667,-1.333267211914062,-0.2494354248046875,-0.022491455078125
2015-04-16 19:58:20.523,890,47448.10260904167,-1.351959228515625,-0.273468017578125,-0.01531982421875
2015-04-16 19:58:20.532,891,47448.11221879167,-1.359420776367188,-0.278350830078125,-0.0093231201171875
2015-04-16 19:58:20.543,892,47448.122042125,-1.244064331054688,-0.265594482421875,-0.0144500732421875
2015-04-16 19:58:20.552,893,47448.13165079167,-1.259017944335938,-0.284820556640625,-0.0102691650390625
2015-04-16 19:58:20.593,894,47448.141367125,-1.428009033203125,-0.350494384765625,-0.0092926025390625
2015-04-16 19:58:20.594,895,47448.1510875,-1.462982177734375,-0.336669921875,0.0037384033203125
2015-04-16 19:58:20.595,896,47448.16080208334,-1.277206420898438,-0.2460174560546875,-0.00341796875
2015-04-16 19:58:20.595,897,47448.17052329167,-1.243820190429688,-0.2779998779296875,-0.002593994140625
2015-04-16 19:58:20.601,898,47448.18023779167,-1.331466674804688,-0.4389190673828125,0.009857177734375
2015-04-16 19:58:20.611,899,47448.190005625,-1.330123901367188,-0.4798431396484375,0.0168914794921875
2015-04-16 19:58:20.620,900,47448.19978137501,-1.241989135742188,-0.481719970703125,0.0229339599609375
2015-04-16 19:58:20.629,901,47448.20939266667,-1.238204956054688,-0.3798065185546875,0.0076751708984375
2015-04-16 19:58:20.639,902,47448.21911133334,-1.273208618164062,-0.2726287841796875,-0.0023345947265625
2015-04-16 19:58:20.649,903,47448.22886895834,-1.117462158203125,-0.209930419921875,-0.005126953125
2015-04-16 19:58:20.670,904,47448.23854425,-0.9925537109375,-0.1828765869140625,0.00531005859375
2015-04-16 19:58:20.701,905,47448.2482585,-1.016067504882812,-0.2183074951171875,-0.0031280517578125
2015-04-16 19:58:20.701,906,47448.25797708333,-0.9870147705078125,-0.1818084716796875,-0.00555419921875
2015-04-16 19:58:20.702,907,47448.26769841667,-0.9954376220703125,-0.1885833740234375,-0.0024871826171875
2015-04-16 19:58:20.702,908,47448.27741275,-1.00079345703125,-0.206787109375,0.012359619140625
2015-04-16 19:58:20.709,909,47448.28727441667,-0.998992919921875,-0.178253173828125,0.02203369140625
2015-04-16 19:58:20.716,910,47448.29685754167,-0.9423980712890625,-0.15380859375,0.0203704833984375
2015-04-16 19:58:20.727,911,47448.306566125,-0.9362030029296875,-0.1042327880859375,0.015167236328125
2015-04-16 19:58:20.736,912,47448.31639358334,-0.9214630126953125,-0.158355712890625,0.024139404296875
2015-04-16 19:58:20.745,913,47448.32600375,-0.88818359375,-0.1874542236328125,0.01904296875
2015-04-16 19:58:20.767,914,47448.33578162501,-0.88037109375,-0.210205078125,0.0240020751953125
2015-04-16 19:58:20.795,915,47448.34543945834,-0.899505615234375,-0.1904296875,0.0211334228515625
2015-04-16 19:58:20.796,916,47448.35515433334,-0.9532928466796875,-0.20819091796875,0.0236968994140625
2015-04-16 19:58:20.797,917,47448.36487387501,-0.9366912841796875,-0.174652099609375,0.0106048583984375
2015-04-16 19:58:20.799,918,47448.37459170834,-0.9004058837890625,-0.207550048828125,0.0143585205078125
2015-04-16 19:58:20.804,919,47448.3843085,-0.9094696044921875,-0.2590484619140625,0.01666259765625
2015-04-16 19:58:20.814,920,47448.39402908333,-0.9091644287109375,-0.2952117919921875,0.0197906494140625
2015-04-16 19:58:20.824,921,47448.40378333334,-0.9174652099609375,-0.3343048095703125,0.01513671875
2015-04-16 19:58:20.833,922,47448.413461625,-0.9559478759765625,-0.3699798583984375,0.020599365234375
2015-04-16 19:58:20.843,923,47448.42329016667,-1.00396728515625,-0.407623291015625,0.0192718505859375
2015-04-16 19:58:20.867,924,47448.43300745833,-1.012710571289062,-0.3848724365234375,0.0153350830078125
2015-04-16 19:58:20.897,925,47448.442615,-0.9824066162109375,-0.3883209228515625,0.014068603515625
2015-04-16 19:58:20.897,926,47448.452334875,-0.96441650390625,-0.3909759521484375,0.0119476318359375
2015-04-16 19:58:20.898,927,47448.462049125,-0.923736572265625,-0.38385009765625,0.0134735107421875
2015-04-16 19:58:20.899,928,47448.47176716667,-0.8956298828125,-0.35589599609375,0.0062103271484375
2015-04-16 19:58:20.901,929,47448.481483625,-0.923248291015625,-0.345733642578125,-0.0004425048828125
2015-04-16 19:58:20.911,930,47448.49120675,-0.954498291015625,-0.351776123046875,-0.0040283203125
2015-04-16 19:58:20.922,931,47448.50111625,-0.9554443359375,-0.3555908203125,-0.0059814453125
2015-04-16 19:58:20.931,932,47448.51064358334,-0.9401702880859375,-0.3744354248046875,-0.00799560546875
2015-04-16 19:58:20.941,933,47448.52035479167,-0.9220428466796875,-0.3837738037109375,-0.002227783203125
2015-04-16 19:58:20.950,934,47448.53018145834,-0.9276885986328125,-0.394287109375,-0.0060577392578125
2015-04-16 19:58:20.998,935,47448.53979016667,-0.9419403076171875,-0.3906402587890625,-0.0069122314453125
2015-04-16 19:58:20.999,936,47448.54950658334,-0.93255615234375,-0.3829193115234375,-0.009002685546875
2015-04-16 19:58:21.000,937,47448.55922620834,-0.925018310546875,-0.3866119384765625,-0.01495361328125
2015-04-16 19:58:21.000,938,47448.568941875,-0.927642822265625,-0.41424560546875,-0.0128173828125
2015-04-16 19:58:21.001,939,47448.57866183334,-0.913330078125,-0.43310546875,-0.01580810546875
2015-04-16 19:58:21.009,940,47448.58837879167,-0.902099609375,-0.42059326171875,-0.0189361572265625
2015-04-16 19:58:21.019,941,47448.598093375,-0.901947021484375,-0.43487548828125,-0.01593017578125
2015-04-16 19:58:21.028,942,47448.60792066667,-0.919036865234375,-0.4388580322265625,-0.0206451416015625
2015-04-16 19:58:21.038,943,47448.61752833334,-0.933197021484375,-0.441864013671875,-0.0195159912109375
2015-04-16 19:58:21.046,944,47448.62724604167,-0.9425506591796875,-0.4505767822265625,-0.0154571533203125
2015-04-16 19:58:21.092,945,47448.63696600001,-0.9283447265625,-0.452301025390625,-0.016571044921875
2015-04-16 19:58:21.092,946,47448.64668066667,-0.9244384765625,-0.4579925537109375,-0.01068115234375
2015-04-16 19:58:21.093,947,47448.6564005,-0.8970947265625,-0.448150634765625,-0.013946533203125
2015-04-16 19:58:21.094,948,47448.666117875,-0.8837738037109375,-0.444244384765625,-0.0052337646484375
2015-04-16 19:58:21.095,949,47448.67583391667,-0.8695220947265625,-0.446929931640625,-0.00439453125
2015-04-16 19:58:21.105,950,47448.68555166667,-0.897064208984375,-0.4415130615234375,-0.0070953369140625
2015-04-16 19:58:21.116,951,47448.69527516667,-0.8912200927734375,-0.4490814208984375,0.0017242431640625
2015-04-16 19:58:21.125,952,47448.704988375,-0.904388427734375,-0.454010009765625,0.00482177734375
2015-04-16 19:58:21.136,953,47448.71471175001,-0.8874053955078125,-0.4490509033203125,0.0046234130859375
2015-04-16 19:58:21.144,954,47448.72442225,-0.87786865234375,-0.453704833984375,0.00555419921875
2015-04-16 19:58:21.153,955,47448.73413883334,-0.86553955078125,-0.453582763671875,0.00738525390625
2015-04-16 19:58:21.179,956,47448.74385854167,-0.8636322021484375,-0.459259033203125,0.00543212890625
2015-04-16 19:58:21.213,957,47448.75357833334,-0.8532257080078125,-0.4543914794921875,0.0072784423828125
2015-04-16 19:58:21.214,958,47448.76524245834,-0.8617095947265625,-0.4677734375,0.0025177001953125
2015-04-16 19:58:21.214,959,47448.774996125,-0.83709716796875,-0.4675140380859375,0.0032501220703125
2015-04-16 19:58:21.217,960,47448.78471766667,-0.838043212890625,-0.475128173828125,-0.0006256103515625
2015-04-16 19:58:21.218,961,47448.794394625,-0.8247222900390625,-0.4730987548828125,0.004150390625
2015-04-16 19:58:21.224,962,47448.80411475,-0.833343505859375,-0.4693450927734375,-0.002655029296875
2015-04-16 19:58:21.234,963,47448.81394766667,-0.8455963134765625,-0.469512939453125,0.00335693359375
2015-04-16 19:58:21.244,964,47448.823549375,-0.84271240234375,-0.4827880859375,-0.00054931640625
2015-04-16 19:58:21.253,965,47448.83326650001,-0.8360748291015625,-0.484619140625,-0.0005950927734375
2015-04-16 19:58:21.265,966,47448.84298279167,-0.83221435546875,-0.4912261962890625,0.0003814697265625
2015-04-16 19:58:21.293,967,47448.85270283333,-0.8313751220703125,-0.4779052734375,-0.0006866455078125
2015-04-16 19:58:21.293,968,47448.862421625,-0.842742919921875,-0.4713897705078125,0.003326416015625
2015-04-16 19:58:21.294,969,47448.87214329167,-0.83990478515625,-0.4723052978515625,0.0033111572265625
2015-04-16 19:58:21.301,970,47448.88185795834,-0.8446807861328125,-0.471405029296875,-0.0005950927734375
2015-04-16 19:58:21.312,971,47448.89168533334,-0.8634490966796875,-0.4792633056640625,0.00848388671875
2015-04-16 19:58:21.321,972,47448.901416,-0.872039794921875,-0.470794677734375,0.007537841796875
2015-04-16 19:58:21.330,973,47448.91100804167,-0.8731842041015625,-0.45269775390625,0.0025482177734375
2015-04-16 19:58:21.341,974,47448.92077470833,-0.8835296630859375,-0.452850341796875,0.009521484375
2015-04-16 19:58:21.352,975,47448.93239091667,-0.8606109619140625,-0.4830169677734375,0.006500244140625
2015-04-16 19:58:21.366,976,47448.94210708333,-0.8701171875,-0.474578857421875,0.0075225830078125
2015-04-16 19:58:21.395,977,47448.95182975,-0.870208740234375,-0.4593505859375,0.0094146728515625
2015-04-16 19:58:21.395,978,47448.96154383333,-0.87884521484375,-0.453704833984375,0.00262451171875
2015-04-16 19:58:21.396,979,47448.9712665,-0.8787994384765625,-0.4518280029296875,0.00750732421875
2015-04-16 19:58:21.400,980,47448.98098879167,-0.8836517333984375,-0.44140625,0.00555419921875
2015-04-16 19:58:21.410,981,47448.99070129167,-0.8958587646484375,-0.4491729736328125,0.0086517333984375
2015-04-16 19:58:21.420,982,47449.00052383334,-0.94586181640625,-0.4649810791015625,0.01312255859375
2015-04-16 19:58:21.431,983,47449.010135625,-0.946136474609375,-0.44970703125,0.00128173828125
2015-04-16 19:58:21.440,984,47449.01989925,-1.00360107421875,-0.47705078125,0.0088348388671875
2015-04-16 19:58:21.449,985,47449.02968741667,-1.046844482421875,-0.5032501220703125,0.0162506103515625
2015-04-16 19:58:21.469,986,47449.03928229167,-1.131759643554688,-0.548004150390625,0.01531982421875
2015-04-16 19:58:21.497,987,47449.04899808334,-1.111831665039062,-0.550628662109375,0.0161285400390625
2015-04-16 19:58:21.498,988,47449.0587135,-1.20025634765625,-0.6163787841796875,0.025146484375
2015-04-16 19:58:21.498,989,47449.068434375,-1.20941162109375,-0.6555023193359375,0.02642822265625
2015-04-16 19:58:21.499,990,47449.07815175,-1.271469116210938,-0.7019195556640625,0.0331573486328125
2015-04-16 19:58:21.508,991,47449.08797654167,-1.264984130859375,-0.69610595703125,0.02520751953125
2015-04-16 19:58:21.517,992,47449.097585875,-1.29571533203125,-0.764007568359375,0.0258331298828125
2015-04-16 19:58:21.528,993,47449.10741312501,-1.406341552734375,-0.77386474609375,0.0338287353515625
2015-04-16 19:58:21.537,994,47449.11713066667,-1.389602661132812,-0.735595703125,0.0315093994140625
2015-04-16 19:58:21.548,995,47449.128681125,-1.273910522460938,-0.5514678955078125,0.0039520263671875
2015-04-16 19:58:21.567,996,47449.138401625,-1.30462646484375,-0.5051727294921875,-0.0038299560546875
2015-04-16 19:58:21.593,997,47449.14811758334,-1.232192993164062,-0.470977783203125,-0.0194244384765625
2015-04-16 19:58:21.594,998,47449.15783875,-1.200332641601562,-0.4391632080078125,-0.026763916015625
2015-04-16 19:58:21.595,999,47449.167559,-1.131011962890625,-0.460296630859375,-0.024383544921875
2015-04-16 19:58:21.599,1000,47449.17727329167,-1.146926879882812,-0.4766693115234375,-0.019256591796875
2015-04-16 19:58:21.607,1001,47449.18711979167,-1.174331665039062,-0.47509765625,-0.0140838623046875
2015-04-16 19:58:21.617,1002,47449.19675170834,-1.154098510742188,-0.3987274169921875,-0.015625
2015-04-16 19:58:21.627,1003,47449.20647975001,-1.155838012695312,-0.2959747314453125,-0.019073486328125
2015-04-16 19:58:21.636,1004,47449.216254125,-1.125823974609375,-0.2528076171875,-0.016632080078125
2015-04-16 19:58:21.646,1005,47449.22586516667,-1.049240112304688,-0.2376556396484375,-0.0174407958984375
2015-04-16 19:58:21.669,1006,47449.23569079167,-0.9808349609375,-0.2644805908203125,-0.0140380859375
2015-04-16 19:58:21.699,1007,47449.24529725,-1.001251220703125,-0.316131591796875,-0.011627197265625
2015-04-16 19:58:21.699,1008,47449.25501770834,-0.9485626220703125,-0.3774261474609375,0.000946044921875
2015-04-16 19:58:21.700,1009,47449.26473616667,-1.048721313476562,-0.4071197509765625,0.001068115234375
2015-04-16 19:58:21.700,1010,47449.27445479167,-1.052459716796875,-0.3081512451171875,-0.01214599609375
2015-04-16 19:58:21.704,1011,47449.284282125,-1.05206298828125,-0.244354248046875,-0.01934814453125
2015-04-16 19:58:21.713,1012,47449.29388783334,-0.9921722412109375,-0.1750946044921875,-0.034027099609375
2015-04-16 19:58:21.723,1013,47449.30360566667,-0.9111328125,-0.2170867919921875,-0.0139617919921875
2015-04-16 19:58:21.733,1014,47449.313393125,-0.87506103515625,-0.2442169189453125,-0.0240020751953125
2015-04-16 19:58:21.745,1015,47449.32498304167,-0.85498046875,-0.2459564208984375,-0.01043701171875
2015-04-16 19:58:21.768,1016,47449.33481629167,-0.8272552490234375,-0.28369140625,-0.010528564453125
2015-04-16 19:58:21.798,1017,47449.34636054167,-0.85498046875,-0.2459564208984375,-0.01043701171875
2015-04-16 19:58:21.799,1018,47449.35608333334,-0.8272552490234375,-0.28369140625,-0.010528564453125
2015-04-16 19:58:21.799,1019,47449.365800125,-0.9207611083984375,-0.308563232421875,-0.0065460205078125
2015-04-16 19:58:21.800,1020,47449.37554125,-0.97393798828125,-0.2787322998046875,-0.0022430419921875
2015-04-16 19:58:21.805,1021,47449.385245375,-0.9146575927734375,-0.22479248046875,0.0008392333984375
2015-04-16 19:58:21.815,1022,47449.39495558334,-0.925048828125,-0.2135009765625,0.00970458984375
2015-04-16 19:58:21.825,1023,47449.40467283333,-0.9226531982421875,-0.2715606689453125,0.0148773193359375
2015-04-16 19:58:21.834,1024,47449.41449966667,-0.892425537109375,-0.263580322265625,0.013580322265625
2015-04-16 19:58:21.845,1025,47449.42410641667,-0.8534393310546875,-0.2793426513671875,0.0171966552734375
2015-04-16 19:58:21.854,1026,47449.43382966667,-0.8440093994140625,-0.2811279296875,0.01416015625
2015-04-16 19:58:21.897,1027,47449.44354341667,-0.8839263916015625,-0.2568511962890625,0.015411376953125
2015-04-16 19:58:21.898,1028,47449.45326620834,-0.89373779296875,-0.2188873291015625,0.011383056640625
2015-04-16 19:58:21.898,1029,47449.46298666667,-0.9088134765625,-0.218109130859375,0.017425537109375
2015-04-16 19:58:21.899,1030,47449.47270220834,-0.8739776611328125,-0.2024688720703125,0.0111236572265625
2015-04-16 19:58:21.902,1031,47449.48242383334,-0.7888946533203125,-0.1881561279296875,0.008270263671875
2015-04-16 19:58:21.911,1032,47449.49214254167,-0.891326904296875,-0.186431884765625,-0.0025177001953125
2015-04-16 19:58:21.922,1033,47449.50186204167,-0.9026641845703125,-0.1846771240234375,-0.0014495849609375
2015-04-16 19:58:21.931,1034,47449.51158016667,-0.8706817626953125,-0.1605072021484375,-0.0038299560546875
2015-04-16 19:58:21.943,1035,47449.52151083334,-0.881927490234375,-0.177764892578125,-0.0046234130859375
2015-04-16 19:58:21.951,1036,47449.531152875,-0.869842529296875,-0.1433868408203125,-0.0019683837890625
2015-04-16 19:58:21.998,1037,47449.54072958334,-0.8494873046875,-0.0983734130859375,-0.0131988525390625
2015-04-16 19:58:21.999,1038,47449.55044895833,-0.8531646728515625,-0.102264404296875,-0.007232666015625
2015-04-16 19:58:22.000,1039,47449.560167125,-0.8070526123046875,-0.073150634765625,-0.0127410888671875
2015-04-16 19:58:22.000,1040,47449.56988716667,-0.857818603515625,-0.1070709228515625,-0.00421142578125
2015-04-16 19:58:22.001,1041,47449.57960591667,-0.8863372802734375,-0.0931243896484375,-0.0030364990234375
2015-04-16 19:58:22.009,1042,47449.589324875,-0.8463592529296875,-0.1202850341796875,-0.0023040771484375
2015-04-16 19:58:22.018,1043,47449.59904550001,-0.945526123046875,-0.14520263671875,0.001739501953125
2015-04-16 19:58:22.029,1044,47449.60876108333,-0.86187744140625,-0.0718994140625,-0.0053558349609375
2015-04-16 19:58:22.039,1045,47449.61859166667,-0.8240203857421875,-0.069580078125,-0.003753662109375
2015-04-16 19:58:22.049,1046,47449.62837420834,-0.8241729736328125,-0.054351806640625,-0.00677490234375
2015-04-16 19:58:22.096,1047,47449.63791770834,-0.8995208740234375,-0.082855224609375,0.006866455078125
2015-04-16 19:58:22.096,1048,47449.64763562501,-0.886383056640625,-0.0684356689453125,0.0076446533203125
2015-04-16 19:58:22.097,1049,47449.65735608333,-0.98577880859375,-0.0695648193359375,0.00860595703125
2015-04-16 19:58:22.098,1050,47449.66707370833,-0.972503662109375,-0.0513763427734375,0.0191802978515625
2015-04-16 19:58:22.098,1051,47449.67679229167,-1.0062255859375,-0.074676513671875,0.03533935546875
2015-04-16 19:58:22.107,1052,47449.686507625,-0.9058074951171875,-0.0706939697265625,0.040252685546875
2015-04-16 19:58:22.116,1053,47449.6962265,-0.8405303955078125,-0.0490570068359375,0.0493316650390625
2015-04-16 19:58:22.126,1054,47449.70594733334,-0.8689422607421875,-0.042724609375,0.053497314453125
2015-04-16 19:58:22.136,1055,47449.71571466667,-0.8782501220703125,-0.051422119140625,0.0585479736328125
2015-04-16 19:58:22.145,1056,47449.72538125001,-0.904052734375,-0.0203094482421875,0.0596160888671875
2015-04-16 19:58:22.207,1057,47449.73509708334,-0.96307373046875,0.021820068359375,0.0590057373046875
2015-04-16 19:58:22.208,1058,47449.744816125,-0.983489990234375,-0.01934814453125,0.0682373046875
2015-04-16 19:58:22.208,1059,47449.75453608334,-0.964691162109375,-0.00579833984375,0.0640716552734375
2015-04-16 19:58:22.209,1060,47449.76425558334,-0.9155120849609375,0.008056640625,0.0684356689453125
2015-04-16 19:58:22.209,1061,47449.77397441667,-0.88812255859375,0.0131378173828125,0.0661773681640625
2015-04-16 19:58:22.210,1062,47449.78369158334,-0.8909912109375,0.020721435546875,0.068145751953125
2015-04-16 19:58:22.213,1063,47449.79340579167,-0.8834228515625,0.0245819091796875,0.0690155029296875
2015-04-16 19:58:22.223,1064,47449.80312558333,-0.9244537353515625,0.042266845703125,0.054595947265625
2015-04-16 19:58:22.232,1065,47449.81283970833,-0.940521240234375,0.03448486328125,0.052825927734375
2015-04-16 19:58:22.243,1066,47449.82266354167,-0.938751220703125,0.030731201171875,0.0410308837890625
2015-04-16 19:58:22.252,1067,47449.83229170834,-0.9274749755859375,0.0384979248046875,0.0379486083984375
2015-04-16 19:58:22.300,1068,47449.841997125,-0.881317138671875,0.045745849609375,0.023712158203125
2015-04-16 19:58:22.301,1069,47449.85171366667,-0.861358642578125,0.044036865234375,0.0294189453125
2015-04-16 19:58:22.301,1070,47449.86143254167,-0.8972625732421875,0.0360107421875,0.0308074951171875
2015-04-16 19:58:22.303,1071,47449.871151375,-0.9302825927734375,0.0232696533203125,0.03216552734375
2015-04-16 19:58:22.303,1072,47449.88087133333,-0.953277587890625,0.04681396484375,0.025390625
2015-04-16 19:58:22.310,1073,47449.89059358334,-0.9013824462890625,0.0579071044921875,0.0169830322265625
2015-04-16 19:58:22.322,1074,47449.90031487501,-0.92230224609375,0.068145751953125,0.0161285400390625
2015-04-16 19:58:22.331,1075,47449.91003516667,-0.891937255859375,0.0542144775390625,0.0139617919921875
2015-04-16 19:58:22.340,1076,47449.91974791667,-0.8522491455078125,0.0423583984375,0.000885009765625
2015-04-16 19:58:22.350,1077,47449.92957658334,-0.78424072265625,0.0374755859375,-0.015472412109375
2015-04-16 19:58:22.371,1078,47449.93918554167,-0.7749786376953125,0.0442962646484375,-0.027374267578125
2015-04-16 19:58:22.403,1079,47449.94889833334,-0.7471771240234375,0.0055694580078125,-0.023529052734375
2015-04-16 19:58:22.403,1080,47449.9586165,-0.7387237548828125,0.00665283203125,-0.0275421142578125
2015-04-16 19:58:22.404,1081,47449.96833425,-0.6877593994140625,0.0243682861328125,-0.03106689453125
2015-04-16 19:58:22.404,1082,47449.97805108334,-0.77685546875,0.03192138671875,-0.0341949462890625
2015-04-16 19:58:22.408,1083,47449.98792745834,-0.8011932373046875,0.0325164794921875,-0.0103759765625
2015-04-16 19:58:22.418,1084,47449.99748758334,-0.83660888671875,0.04742431640625,-0.0326995849609375
2015-04-16 19:58:22.427,1085,47450.00733083334,-0.822113037109375,0.0360870361328125,-0.015106201171875
2015-04-16 19:58:22.437,1086,47450.01692295833,-0.8865509033203125,0.0382232666015625,-0.0194091796875
2015-04-16 19:58:22.447,1087,47450.026668375,-0.8671875,-0.0053558349609375,-0.010528564453125
2015-04-16 19:58:22.468,1088,47450.03650704167,-0.8740997314453125,0.0335693359375,-0.010650634765625
2015-04-16 19:58:22.501,1089,47450.04801941667,-0.8748931884765625,0.007904052734375,-0.0134735107421875
2015-04-16 19:58:22.502,1090,47450.05773966667,-0.861785888671875,0.0441741943359375,-0.0049285888671875
2015-04-16 19:58:22.503,1091,47450.06745720834,-0.8543853759765625,0.0708770751953125,-0.0021820068359375
2015-04-16 19:58:22.503,1092,47450.07717729167,-0.8995361328125,0.060791015625,0.014984130859375
2015-04-16 19:58:22.507,1093,47450.087006375,-0.9779052734375,0.04937744140625,0.0256195068359375
2015-04-16 19:58:22.519,1094,47450.098673875,-0.9637908935546875,0.0771026611328125,0.0361480712890625
2015-04-16 19:58:22.528,1095,47450.10827604167,-0.9694061279296875,0.09222412109375,0.0488739013671875
2015-04-16 19:58:22.538,1096,47450.11810066667,-0.9779510498046875,0.11395263671875,0.059661865234375
2015-04-16 19:58:22.547,1097,47450.12771108334,-0.95849609375,0.08172607421875,0.0812530517578125
2015-04-16 19:58:22.568,1098,47450.137430125,-0.977294921875,0.0776824951171875,0.0893096923828125
2015-04-16 19:58:22.598,1099,47450.147142,-1.007720947265625,0.1001739501953125,0.092437744140625
2015-04-16 19:58:22.599,1100,47450.15686333334,-1.080764770507812,0.12786865234375,0.097900390625
2015-04-16 19:58:22.599,1101,47450.16852729167,-1.1619873046875,0.1259307861328125,0.1134490966796875
2015-04-16 19:58:22.600,1102,47450.17824329167,-1.123428344726562,0.1473388671875,0.1060943603515625
2015-04-16 19:58:22.608,1103,47450.18796775,-1.088607788085938,0.147796630859375,0.0880584716796875
2015-04-16 19:58:22.617,1104,47450.197678375,-1.07989501953125,0.1183929443359375,0.086181640625
2015-04-16 19:58:22.628,1105,47450.20750704167,-1.069305419921875,0.089996337890625,0.082275390625
2015-04-16 19:58:22.637,1106,47450.21724929167,-1.0419921875,0.0941314697265625,0.074127197265625
2015-04-16 19:58:22.647,1107,47450.226837,-1.050460815429688,0.0778961181640625,0.0684051513671875
2015-04-16 19:58:22.668,1108,47450.23655591667,-1.026809692382812,0.0667724609375,0.0613555908203125
2015-04-16 19:58:22.700,1109,47450.24626925,-1.016510009765625,0.0697784423828125,0.053375244140625
2015-04-16 19:58:22.700,1110,47450.25599079167,-1.022445678710938,0.07452392578125,0.0377044677734375
2015-04-16 19:58:22.701,1111,47450.26570883334,-1.003402709960938,0.0633087158203125,0.0385589599609375
2015-04-16 19:58:22.701,1112,47450.27542570834,-0.9975738525390625,0.0452880859375,0.0395660400390625
2015-04-16 19:58:22.706,1113,47450.285257125,-1.004043579101562,0.0233306884765625,0.0407257080078125
2015-04-16 19:58:22.715,1114,47450.29485829167,-0.96630859375,0.038055419921875,0.037353515625
2015-04-16 19:58:22.725,1115,47450.30468816667,-0.8914337158203125,0.0274810791015625,0.0376434326171875
2015-04-16 19:58:22.733,1116,47450.31430000001,-0.833770751953125,0.0338592529296875,0.03314208984375
2015-04-16 19:58:22.744,1117,47450.32412604167,-0.8585357666015625,0.05548095703125,0.0332794189453125
2015-04-16 19:58:22.768,1118,47450.33384404167,-0.9124908447265625,0.0500946044921875,0.0328216552734375
2015-04-16 19:58:22.798,1119,47450.34539479167,-0.941741943359375,0.0316925048828125,0.0302581787109375
2015-04-16 19:58:22.798,1120,47450.355117375,-0.986419677734375,0.0274505615234375,0.014007568359375
2015-04-16 19:58:22.799,1121,47450.364833375,-1.010101318359375,0.0338287353515625,0.01715087890625
2015-04-16 19:58:22.799,1122,47450.37455450001,-1.012069702148438,0.039520263671875,0.014190673828125
2015-04-16 19:58:22.804,1123,47450.38438025001,-1.034774780273438,0.0383148193359375,0.015411376953125
2015-04-16 19:58:22.816,1124,47450.39592870833,-1.10687255859375,0.045135498046875,0.00921630859375
2015-04-16 19:58:22.827,1125,47450.4057565,-1.09259033203125,0.0367431640625,0.008148193359375
2015-04-16 19:58:22.836,1126,47450.41547141667,-1.076416015625,0.0340423583984375,0.0138702392578125
2015-04-16 19:58:22.846,1127,47450.42519054167,-1.050689697265625,0.026702880859375,0.021514892578125
2015-04-16 19:58:22.868,1128,47450.43674279167,-1.097137451171875,0.0347137451171875,0.0229034423828125
2015-04-16 19:58:22.899,1129,47450.44645775,-1.086639404296875,0.02911376953125,0.026763916015625
2015-04-16 19:58:22.899,1130,47450.45618054167,-1.066650390625,0.005584716796875,0.020782470703125
2015-04-16 19:58:22.900,1131,47450.46589808333,-1.03411865234375,-0.0254669189453125,0.02947998046875
2015-04-16 19:58:22.900,1132,47450.47561475,-0.9808807373046875,-0.05438232421875,0.0310516357421875
2015-04-16 19:58:22.906,1133,47450.48545070834,-0.9694671630859375,-0.0514068603515625,0.0348663330078125
2015-04-16 19:58:22.915,1134,47450.49505116667,-0.9884490966796875,-0.0449676513671875,0.0350189208984375
2015-04-16 19:58:22.925,1135,47450.50487854167,-1.01220703125,-0.03192138671875,0.0371551513671875
2015-04-16 19:58:22.935,1136,47450.51459529167,-1.035995483398438,-0.0188751220703125,0.03436279296875
2015-04-16 19:58:22.946,1137,47450.52420725,-1.012130737304688,-0.03668212890625,0.03912353515625
2015-04-16 19:58:22.969,1138,47450.53392404167,-0.963897705078125,-0.045623779296875,0.030853271484375
2015-04-16 19:58:22.999,1139,47450.54364304167,-0.8954925537109375,-0.066741943359375,0.0362091064453125
2015-04-16 19:58:22.999,1140,47450.55335908334,-0.80364990234375,-0.063812255859375,0.0372467041015625
2015-04-16 19:58:23.000,1141,47450.56307558333,-0.7394256591796875,-0.0677642822265625,0.0219268798828125
2015-04-16 19:58:23.001,1142,47450.57279679167,-0.7178192138671875,-0.0579681396484375,0.0138092041015625
2015-04-16 19:58:23.002,1143,47450.58251033333,-0.7368011474609375,-0.05438232421875,0.01300048828125
2015-04-16 19:58:23.011,1144,47450.59222720833,-0.7311248779296875,-0.0609588623046875,0.009033203125
2015-04-16 19:58:23.021,1145,47450.60194741667,-0.6971435546875,-0.033966064453125,0.0174102783203125
2015-04-16 19:58:23.032,1146,47450.61166854167,-0.6732025146484375,-0.0413665771484375,0.032928466796875
2015-04-16 19:58:23.042,1147,47450.62148979167,-0.640167236328125,-0.0323944091796875,0.0296173095703125
2015-04-16 19:58:23.051,1148,47450.63121120834,-0.6343994140625,-0.0390167236328125,0.032562255859375
2015-04-16 19:58:23.097,1149,47450.64081375,-0.6971588134765625,-0.025421142578125,0.0203094482421875
2015-04-16 19:58:23.098,1150,47450.65053154167,-0.7702789306640625,-0.0233154296875,0.00433349609375
2015-04-16 19:58:23.099,1151,47450.66025179167,-0.828887939453125,-0.0221099853515625,0.0117645263671875
2015-04-16 19:58:23.099,1152,47450.669967875,-0.8505859375,-0.0053253173828125,0.0295562744140625
2015-04-16 19:58:23.100,1153,47450.67968770834,-0.830413818359375,-0.008026123046875,0.0490264892578125
2015-04-16 19:58:23.111,1154,47450.68953720834,-0.7970428466796875,-0.045684814453125,0.0469207763671875
2015-04-16 19:58:23.119,1155,47450.699121875,-0.7558746337890625,0.01092529296875,0.0403594970703125
2015-04-16 19:58:23.128,1156,47450.70883995834,-0.832672119140625,0.0148468017578125,0.033233642578125
2015-04-16 19:58:23.138,1157,47450.71855858334,-0.9676055908203125,-0.0551910400390625,0.03094482421875
2015-04-16 19:58:23.148,1158,47450.728272,-1.027511596679688,-0.0396270751953125,0.0206298828125
2015-04-16 19:58:23.211,1159,47450.73799554167,-1.031936645507812,0.0269622802734375,0.007598876953125
2015-04-16 19:58:23.212,1160,47450.7477115,-1.024032592773438,-0.0366363525390625,-0.00396728515625
2015-04-16 19:58:23.212,1161,47450.757429875,-0.9417877197265625,-0.0176544189453125,-0.00189208984375
2015-04-16 19:58:23.213,1162,47450.76715016667,-0.8340606689453125,-0.0011749267578125,-0.0089111328125
2015-04-16 19:58:23.214,1163,47450.77686558334,-0.7990570068359375,-0.002685546875,-0.0121917724609375
2015-04-16 19:58:23.216,1164,47450.78658495834,-0.9457855224609375,-0.008148193359375,-0.0127105712890625
2015-04-16 19:58:23.217,1165,47450.79630525001,-1.096206665039062,-0.0288543701171875,-0.01605224609375
2015-04-16 19:58:23.225,1166,47450.80602329167,-1.151290893554688,-0.02752685546875,-0.0273284912109375
2015-04-16 19:58:23.236,1167,47450.81578554167,-1.162399291992188,0.048492431640625,-0.0373992919921875
2015-04-16 19:58:23.245,1168,47450.82545875001,-1.1004638671875,0.007293701171875,-0.03094482421875
2015-04-16 19:58:23.268,1169,47450.83528954167,-1.1468505859375,0.020050048828125,-0.0217132568359375
2015-04-16 19:58:23.301,1170,47450.84489491667,-1.115631103515625,0.0261383056640625,-0.0220489501953125
