loggingTime,loggingSample,accelerometerTimestamp_sinceReboot,accelerometerAccelerationX,accelerometerAccelerationY,accelerometerAccelerationZ
2015-04-16 19:57:25.111,1,47392.63163283333,-0.9051971435546875,-0.471160888671875,0.0059051513671875
2015-04-16 19:57:25.113,2,47392.64134979167,-0.893890380859375,-0.4757537841796875,-7.62939453125e-05
2015-04-16 19:57:25.113,3,47392.65111420833,-0.8892974853515625,-0.478515625,-0.01287841796875
2015-04-16 19:57:25.114,4,47392.66078645833,-0.928924560546875,-0.48944091796875,-0.009490966796875
2015-04-16 19:57:25.114,5,47392.67050558334,-0.762054443359375,-0.441741943359375,-0.038848876953125
2015-04-16 19:57:25.115,6,47392.680222625,-0.89788818359375,-0.47857666015625,-0.0186920166015625
2015-04-16 19:57:25.116,7,47392.68994083333,-0.872344970703125,-0.497283935546875,-0.0316009521484375
2015-04-16 19:57:25.121,8,47392.70160316667,-0.8538055419921875,-0.5152740478515625,0.000701904296875
2015-04-16 19:57:25.132,9,47392.71132279167,-0.8585968017578125,-0.509613037109375,-0.0002593994140625
2015-04-16 19:57:25.140,10,47392.72103608333,-0.8538818359375,-0.51715087890625,-0.00616455078125
2015-04-16 19:57:25.150,11,47392.73075470833,-0.8538055419921875,-0.511474609375,0.002655029296875
2015-04-16 19:57:25.325,12,47392.74046979167,-0.846160888671875,-0.519012451171875,0.00457763671875
2015-04-16 19:57:25.326,13,47392.75018812501,-0.848052978515625,-0.5199737548828125,0.004608154296875
2015-04-16 19:57:25.326,14,47392.75990591667,-0.8508758544921875,-0.519073486328125,0.005615234375
2015-04-16 19:57:25.327,15,47392.76961991667,-0.840545654296875,-0.5198822021484375,-0.0003814697265625
2015-04-16 19:57:25.327,16,47392.77933920833,-0.844268798828125,-0.524688720703125,0.0006561279296875
2015-04-16 19:57:25.328,17,47392.78905425,-0.8442230224609375,-0.5275421142578125,0.0026397705078125
2015-04-16 19:57:25.328,18,47392.798772125,-0.8480224609375,-0.5199737548828125,0.0065765380859375
2015-04-16 19:57:25.329,19,47392.80849245834,-0.846221923828125,-0.514251708984375,0.003570556640625
2015-04-16 19:57:25.330,20,47392.81820779167,-0.850006103515625,-0.515228271484375,0.00164794921875
2015-04-16 19:57:25.331,21,47392.82792666667,-0.8443450927734375,-0.513275146484375,0.0015869140625
2015-04-16 19:57:25.332,22,47392.83764254167,-0.8452606201171875,-0.5151824951171875,0.003570556640625
2015-04-16 19:57:25.333,23,47392.84735770834,-0.841552734375,-0.511322021484375,-0.00042724609375
2015-04-16 19:57:25.334,24,47392.85707566667,-0.8461761474609375,-0.51141357421875,0.007476806640625
2015-04-16 19:57:25.335,25,47392.866797625,-0.83758544921875,-0.5160980224609375,0.0113525390625
2015-04-16 19:57:25.337,26,47392.87651429167,-0.8423309326171875,-0.5170745849609375,0.0094451904296875
2015-04-16 19:57:25.337,27,47392.88623229167,-0.84320068359375,-0.5171051025390625,0.0143585205078125
2015-04-16 19:57:25.338,28,47392.89594616667,-0.847991943359375,-0.5180816650390625,0.0104827880859375
2015-04-16 19:57:25.339,29,47392.90566191667,-0.8488922119140625,-0.5219268798828125,0.011474609375
2015-04-16 19:57:25.339,30,47392.91538033334,-0.8404388427734375,-0.5208587646484375,0.006500244140625
2015-04-16 19:57:25.344,31,47392.925098,-0.842315673828125,-0.5180206298828125,0.0104217529296875
2015-04-16 19:57:25.372,32,47392.93481758334,-0.845184326171875,-0.5218505859375,0.0055694580078125
2015-04-16 19:57:25.401,33,47392.94453166667,-0.8394622802734375,-0.5227508544921875,0.007476806640625
2015-04-16 19:57:25.402,34,47392.954249875,-0.841339111328125,-0.5237274169921875,0.00848388671875
2015-04-16 19:57:25.403,35,47392.96396958334,-0.8412628173828125,-0.529449462890625,0.011444091796875
2015-04-16 19:57:25.403,36,47392.97368991667,-0.8488616943359375,-0.5295257568359375,0.0085906982421875
2015-04-16 19:57:25.404,37,47392.983412875,-0.8535919189453125,-0.527679443359375,0.0105743408203125
2015-04-16 19:57:25.415,38,47392.99323941667,-0.85833740234375,-0.52581787109375,0.0106201171875
2015-04-16 19:57:25.416,39,47393.00297441667,-0.854522705078125,-0.532440185546875,0.0086669921875
2015-04-16 19:57:25.425,40,47393.01268508333,-0.8582305908203125,-0.54010009765625,0.01068115234375
2015-04-16 19:57:25.434,41,47393.02229579167,-0.8602142333984375,-0.5419921875,0.00286865234375
2015-04-16 19:57:25.444,42,47393.03211679167,-0.8554840087890625,-0.5390777587890625,0.0028076171875
2015-04-16 19:57:25.467,43,47393.04183629167,-0.84979248046875,-0.5409393310546875,0.004730224609375
2015-04-16 19:57:25.501,44,47393.05144208334,-0.8516998291015625,-0.5305023193359375,0.0095977783203125
2015-04-16 19:57:25.503,45,47393.06115875,-0.8470916748046875,-0.521881103515625,0.0045928955078125
2015-04-16 19:57:25.504,46,47393.07087858333,-0.849090576171875,-0.5171051025390625,-0.0012969970703125
2015-04-16 19:57:25.504,47,47393.080595375,-0.845306396484375,-0.517059326171875,-0.0013275146484375
2015-04-16 19:57:25.505,48,47393.09031079167,-0.84918212890625,-0.509490966796875,-0.0042724609375
2015-04-16 19:57:25.512,49,47393.100029,-0.8556976318359375,-0.515289306640625,0.0007171630859375
2015-04-16 19:57:25.522,50,47393.10974329167,-0.856658935546875,-0.512451171875,0.0007171630859375
2015-04-16 19:57:25.531,51,47393.11945925,-0.8584747314453125,-0.52008056640625,0.00274658203125
2015-04-16 19:57:25.542,52,47393.12917829167,-0.8651885986328125,-0.50970458984375,0.0037384033203125
2015-04-16 19:57:25.552,53,47393.13889616667,-0.85382080078125,-0.5133819580078125,0.000701904296875
2015-04-16 19:57:25.597,54,47393.14861195834,-0.8518829345703125,-0.518096923828125,0.001678466796875
2015-04-16 19:57:25.598,55,47393.15833304167,-0.851898193359375,-0.5200042724609375,-0.000274658203125
2015-04-16 19:57:25.598,56,47393.16804633334,-0.858551025390625,-0.51531982421875,-0.000244140625
2015-04-16 19:57:25.599,57,47393.17775920834,-0.8594970703125,-0.512481689453125,0.0017242431640625
2015-04-16 19:57:25.599,58,47393.18747758333,-0.85955810546875,-0.5029754638671875,0.0026702880859375
2015-04-16 19:57:25.611,59,47393.19730575,-0.85662841796875,-0.5115203857421875,0.004638671875
2015-04-16 19:57:25.620,60,47393.20703266667,-0.8613739013671875,-0.5144195556640625,0.00372314453125
2015-04-16 19:57:25.630,61,47393.216629625,-0.8631744384765625,-0.5087738037109375,0.0125274658203125
2015-04-16 19:57:25.638,62,47393.22634504167,-0.860443115234375,-0.503021240234375,0.007568359375
2015-04-16 19:57:25.648,63,47393.23610595833,-0.8595123291015625,-0.4991912841796875,0.009521484375
2015-04-16 19:57:25.665,64,47393.24586420834,-0.8632659912109375,-0.5030517578125,0.0095672607421875
2015-04-16 19:57:25.692,65,47393.255491,-0.8613128662109375,-0.505889892578125,0.0124969482421875
2015-04-16 19:57:25.693,66,47393.26520791667,-0.863128662109375,-0.504974365234375,0.018402099609375
2015-04-16 19:57:25.694,67,47393.27492395834,-0.861328125,-0.5020751953125,0.013458251953125
2015-04-16 19:57:25.696,68,47393.28464870834,-0.864227294921875,-0.48785400390625,0.017364501953125
2015-04-16 19:57:25.707,69,47393.29446754167,-0.872802734375,-0.4832000732421875,0.01544189453125
2015-04-16 19:57:25.716,70,47393.304075875,-0.8672027587890625,-0.480255126953125,0.0104827880859375
2015-04-16 19:57:25.726,71,47393.31390158334,-0.871826171875,-0.48223876953125,0.0174102783203125
2015-04-16 19:57:25.735,72,47393.32350929167,-0.869049072265625,-0.479339599609375,0.0144195556640625
2015-04-16 19:57:25.745,73,47393.333223875,-0.8765869140625,-0.478485107421875,0.017425537109375
2015-04-16 19:57:25.770,74,47393.34304933334,-0.876495361328125,-0.484222412109375,0.0213775634765625
2015-04-16 19:57:25.797,75,47393.3526575,-0.872802734375,-0.4765472412109375,0.0183563232421875
2015-04-16 19:57:25.798,76,47393.3623785,-0.8746795654296875,-0.475616455078125,0.0213165283203125
2015-04-16 19:57:25.799,77,47393.37211533334,-0.87860107421875,-0.4689788818359375,0.013458251953125
2015-04-16 19:57:25.799,78,47393.38181766667,-0.8765411376953125,-0.479461669921875,0.0203857421875
2015-04-16 19:57:25.804,79,47393.391526375,-0.8862152099609375,-0.4652557373046875,0.013519287109375
2015-04-16 19:57:25.813,80,47393.40124770834,-0.882232666015625,-0.4785614013671875,0.019439697265625
2015-04-16 19:57:25.823,81,47393.41106716667,-0.88232421875,-0.4747467041015625,0.0154876708984375
2015-04-16 19:57:25.835,82,47393.420671,-0.8862152099609375,-0.4652557373046875,0.013519287109375
2015-04-16 19:57:25.845,83,47393.43049816667,-0.882232666015625,-0.4785614013671875,0.019439697265625
2015-04-16 19:57:25.870,84,47393.44010754167,-0.88232421875,-0.4747467041015625,0.0154876708984375
2015-04-16 19:57:25.897,85,47393.44986095834,-0.8784332275390625,-0.4870758056640625,0.016510009765625
2015-04-16 19:57:25.898,86,47393.459541,-0.8803253173828125,-0.4823455810546875,0.018463134765625
2015-04-16 19:57:25.899,87,47393.46925533334,-0.8813934326171875,-0.478515625,0.0115814208984375
2015-04-16 19:57:25.899,88,47393.47897854167,-0.873809814453125,-0.4774932861328125,0.013458251953125
2015-04-16 19:57:25.903,89,47393.48880229167,-0.8757476806640625,-0.4718017578125,0.0124664306640625
2015-04-16 19:57:25.912,90,47393.49840887501,-0.8738555908203125,-0.469879150390625,0.013427734375
2015-04-16 19:57:25.922,91,47393.50812341667,-0.8757476806640625,-0.4765472412109375,0.0105438232421875
2015-04-16 19:57:25.932,92,47393.517842125,-0.8860931396484375,-0.4804840087890625,0.0135955810546875
2015-04-16 19:57:25.942,93,47393.52755875,-0.889862060546875,-0.48052978515625,0.014617919921875
2015-04-16 19:57:25.967,94,47393.53738058334,-0.8964996337890625,-0.4796600341796875,0.014678955078125
2015-04-16 19:57:25.995,95,47393.54698716667,-0.8899078369140625,-0.4786224365234375,0.01263427734375
2015-04-16 19:57:25.996,96,47393.55670570834,-0.880462646484375,-0.47662353515625,0.011566162109375
2015-04-16 19:57:25.996,97,47393.56641929167,-0.8824005126953125,-0.4747161865234375,0.009613037109375
2015-04-16 19:57:25.997,98,47393.576137875,-0.8755950927734375,-0.4803924560546875,0.0193939208984375
2015-04-16 19:57:26.001,99,47393.585853875,-0.877532958984375,-0.4822845458984375,0.0145111083984375
2015-04-16 19:57:26.012,100,47393.59571279167,-0.88128662109375,-0.4927978515625,0.01165771484375
2015-04-16 19:57:26.021,101,47393.60540233333,-0.8860931396484375,-0.4871368408203125,0.0106964111328125
2015-04-16 19:57:26.031,102,47393.615003375,-0.88226318359375,-0.48614501953125,0.012603759765625
2015-04-16 19:57:26.041,103,47393.62472283334,-0.8813629150390625,-0.4804229736328125,0.0125732421875
2015-04-16 19:57:26.050,104,47393.634550125,-0.8784942626953125,-0.4766082763671875,0.0174407958984375
2015-04-16 19:57:26.068,105,47393.64415558334,-0.882354736328125,-0.4699859619140625,0.015472412109375
2015-04-16 19:57:26.099,106,47393.65387345834,-0.87860107421875,-0.4699249267578125,0.0124969482421875
2015-04-16 19:57:26.100,107,47393.66359183333,-0.8851470947265625,-0.477630615234375,0.0165252685546875
2015-04-16 19:57:26.100,108,47393.67330791667,-0.892669677734375,-0.483428955078125,0.016632080078125
2015-04-16 19:57:26.101,109,47393.68302354167,-0.891693115234375,-0.484375,0.0175933837890625
2015-04-16 19:57:26.109,110,47393.69285029167,-0.889801025390625,-0.4853057861328125,0.0175933837890625
2015-04-16 19:57:26.118,111,47393.702490625,-0.8935546875,-0.4862823486328125,0.01861572265625
2015-04-16 19:57:26.128,112,47393.712286125,-0.890777587890625,-0.4871978759765625,0.013671875
2015-04-16 19:57:26.138,113,47393.72189204167,-0.887939453125,-0.4795684814453125,0.018524169921875
2015-04-16 19:57:26.147,114,47393.73160575,-0.887054443359375,-0.4814300537109375,0.0126190185546875
2015-04-16 19:57:26.182,115,47393.741328875,-0.8936309814453125,-0.4815216064453125,0.016632080078125
2015-04-16 19:57:26.217,116,47393.751041125,-0.8897857666015625,-0.4824676513671875,0.0195465087890625
2015-04-16 19:57:26.217,117,47393.760760375,-0.8936920166015625,-0.4843597412109375,0.0097808837890625
2015-04-16 19:57:26.218,118,47393.77047641667,-0.8889007568359375,-0.4862213134765625,0.0126800537109375
2015-04-16 19:57:26.219,119,47393.78018945834,-0.88409423828125,-0.486175537109375,0.018524169921875
2015-04-16 19:57:26.219,120,47393.78991116667,-0.87652587890625,-0.4860992431640625,0.0174713134765625
2015-04-16 19:57:26.220,121,47393.79962641667,-0.8699188232421875,-0.4812774658203125,0.0193328857421875
2015-04-16 19:57:26.228,122,47393.80945691667,-0.86993408203125,-0.48126220703125,0.018341064453125
2015-04-16 19:57:26.234,123,47393.81906395833,-0.875701904296875,-0.47467041015625,0.0154266357421875
2015-04-16 19:57:26.246,124,47393.82877529167,-0.8718414306640625,-0.4793853759765625,0.01837158203125
2015-04-16 19:57:26.268,125,47393.83849820834,-0.8727264404296875,-0.490814208984375,0.0164642333984375
2015-04-16 19:57:26.300,126,47393.84821216667,-0.870819091796875,-0.4888763427734375,0.018402099609375
2015-04-16 19:57:26.300,127,47393.85793375001,-0.8699188232421875,-0.489837646484375,0.01544189453125
2015-04-16 19:57:26.301,128,47393.86764925,-0.8641815185546875,-0.500213623046875,0.0124969482421875
2015-04-16 19:57:26.302,129,47393.87737083334,-0.8641815185546875,-0.4983062744140625,0.0134735107421875
2015-04-16 19:57:26.304,130,47393.887085,-0.866058349609375,-0.50213623046875,0.0135040283203125
2015-04-16 19:57:26.312,131,47393.89680375,-0.8726348876953125,-0.50604248046875,0.0155487060546875
2015-04-16 19:57:26.323,132,47393.90662841667,-0.8783416748046875,-0.5060882568359375,0.012664794921875
2015-04-16 19:57:26.332,133,47393.916235375,-0.875396728515625,-0.5060882568359375,0.0204925537109375
2015-04-16 19:57:26.343,134,47393.92607966667,-0.8802490234375,-0.5013580322265625,0.013641357421875
2015-04-16 19:57:26.352,135,47393.93578404167,-0.883026123046875,-0.507110595703125,0.01666259765625
2015-04-16 19:57:26.395,136,47393.94538583334,-0.87738037109375,-0.5032196044921875,0.0146026611328125
2015-04-16 19:57:26.395,137,47393.955103625,-0.87457275390625,-0.5079345703125,0.01068115234375
2015-04-16 19:57:26.396,138,47393.964820375,-0.8659820556640625,-0.5097503662109375,0.0145416259765625
2015-04-16 19:57:26.397,139,47393.97453716667,-0.8632049560546875,-0.50970458984375,0.010589599609375
2015-04-16 19:57:26.400,140,47393.98427770834,-0.8612518310546875,-0.5068511962890625,0.016448974609375
2015-04-16 19:57:26.410,141,47393.99397066667,-0.861236572265625,-0.50970458984375,0.0164642333984375
2015-04-16 19:57:26.420,142,47394.00379670833,-0.8566436767578125,-0.5086669921875,0.0046234130859375
2015-04-16 19:57:26.429,143,47394.01340654167,-0.854644775390625,-0.5105743408203125,0.0114898681640625
2015-04-16 19:57:26.439,144,47394.02323100001,-0.855621337890625,-0.5105743408203125,0.0095367431640625
2015-04-16 19:57:26.449,145,47394.032947375,-0.857452392578125,-0.513458251953125,0.01251220703125
2015-04-16 19:57:26.495,146,47394.04255566667,-0.8565216064453125,-0.514404296875,0.0115203857421875
2015-04-16 19:57:26.496,147,47394.052271125,-0.84613037109375,-0.509521484375,0.0123748779296875
2015-04-16 19:57:26.497,148,47394.06199083334,-0.8470611572265625,-0.5133514404296875,0.0114288330078125
2015-04-16 19:57:26.497,149,47394.07171233334,-0.8413238525390625,-0.51898193359375,0.0123748779296875
2015-04-16 19:57:26.500,150,47394.08142383333,-0.8413238525390625,-0.515167236328125,0.014312744140625
2015-04-16 19:57:26.508,151,47394.091255,-0.839385986328125,-0.5208740234375,0.0143280029296875
2015-04-16 19:57:26.517,152,47394.100858375,-0.84228515625,-0.5189971923828125,0.01141357421875
2015-04-16 19:57:26.527,153,47394.11057466667,-0.848876953125,-0.519073486328125,0.013427734375
2015-04-16 19:57:26.537,154,47394.1202935,-0.8535919189453125,-0.517242431640625,0.01641845703125
2015-04-16 19:57:26.547,155,47394.13001229167,-0.8563995361328125,-0.521087646484375,0.0164642333984375
2015-04-16 19:57:26.569,156,47394.13983754167,-0.859344482421875,-0.5201263427734375,0.0106048583984375
2015-04-16 19:57:26.598,157,47394.14944458334,-0.8554840087890625,-0.520111083984375,0.0154571533203125
2015-04-16 19:57:26.599,158,47394.159162625,-0.846923828125,-0.5219268798828125,0.0173492431640625
2015-04-16 19:57:26.599,159,47394.168880625,-0.8496856689453125,-0.5248260498046875,0.0213165283203125
2015-04-16 19:57:26.600,160,47394.17860204167,-0.8440704345703125,-0.5209503173828125,0.0182952880859375
2015-04-16 19:57:26.605,161,47394.18843195833,-0.8544769287109375,-0.522003173828125,0.018402099609375
2015-04-16 19:57:26.614,162,47394.19803991667,-0.845001220703125,-0.52191162109375,0.0193023681640625
2015-04-16 19:57:26.624,163,47394.20786470833,-0.8459014892578125,-0.52099609375,0.023223876953125
2015-04-16 19:57:26.634,164,47394.21760554167,-0.8440399169921875,-0.52569580078125,0.0183258056640625
2015-04-16 19:57:26.643,165,47394.22719458333,-0.8459014892578125,-0.5285797119140625,0.01934814453125
2015-04-16 19:57:26.653,166,47394.23702058334,-0.8495635986328125,-0.5324554443359375,0.026275634765625
2015-04-16 19:57:26.693,167,47394.24662741667,-0.8486175537109375,-0.5390777587890625,0.022369384765625
2015-04-16 19:57:26.694,168,47394.25634475,-0.8448333740234375,-0.5381011962890625,0.0233154296875
2015-04-16 19:57:26.694,169,47394.26606425001,-0.839935302734375,-0.5457000732421875,0.031158447265625
2015-04-16 19:57:26.695,170,47394.27578479167,-0.8458099365234375,-0.547607421875,0.0155029296875
2015-04-16 19:57:26.701,171,47394.28550683334,-0.807098388671875,-0.522430419921875,0.020904541015625
2015-04-16 19:57:26.712,172,47394.29534108334,-0.801300048828125,-0.5395050048828125,0.0199432373046875
2015-04-16 19:57:26.720,173,47394.304938,-0.779541015625,-0.5335540771484375,0.02264404296875
2015-04-16 19:57:26.731,174,47394.31465708333,-0.7779083251953125,-0.5211029052734375,0.0098114013671875
2015-04-16 19:57:26.740,175,47394.32437420834,-0.762664794921875,-0.520965576171875,0.0165252685546875
2015-04-16 19:57:26.752,176,47394.33420500001,-0.707672119140625,-0.5336456298828125,0.0150909423828125
2015-04-16 19:57:26.794,177,47394.34380754167,-0.690765380859375,-0.5096893310546875,0.01776123046875
2015-04-16 19:57:26.795,178,47394.35352529167,-0.6672515869140625,-0.500823974609375,0.0106048583984375
2015-04-16 19:57:26.795,179,47394.3632405,-0.7277679443359375,-0.3873291015625,0.0096588134765625
2015-04-16 19:57:26.796,180,47394.37296120833,-0.7145843505859375,-0.369110107421875,0.01434326171875
2015-04-16 19:57:26.802,181,47394.38268291667,-0.6781158447265625,-0.321075439453125,0.00592041015625
2015-04-16 19:57:26.813,182,47394.392395625,-0.641326904296875,-0.30352783203125,0.0044708251953125
2015-04-16 19:57:26.822,183,47394.40211204167,-0.6149444580078125,-0.2908477783203125,0.002197265625
2015-04-16 19:57:26.832,184,47394.41194041667,-0.5902557373046875,-0.2981719970703125,0.00299072265625
2015-04-16 19:57:26.841,185,47394.42154645834,-0.48236083984375,-0.302642822265625,-0.0009765625
2015-04-16 19:57:26.851,186,47394.431377375,-0.4887542724609375,-0.3369598388671875,-0.003692626953125
2015-04-16 19:57:26.867,187,47394.44098345833,-0.4617156982421875,-0.3871307373046875,0.008056640625
2015-04-16 19:57:26.894,188,47394.45070004167,-0.405609130859375,-0.4235992431640625,0.0057525634765625
2015-04-16 19:57:26.895,189,47394.460419125,-0.378631591796875,-0.4690093994140625,0.0155181884765625
2015-04-16 19:57:26.895,190,47394.47014300001,-0.4064178466796875,-0.47491455078125,-0.013641357421875
2015-04-16 19:57:26.900,191,47394.47985808334,-0.42791748046875,-0.4790496826171875,0.0062255859375
2015-04-16 19:57:26.909,192,47394.489579,-0.48126220703125,-0.4501190185546875,-0.0002593994140625
2015-04-16 19:57:26.919,193,47394.49929433333,-0.5125579833984375,-0.4048919677734375,0.020416259765625
2015-04-16 19:57:26.928,194,47394.50901575,-0.5416412353515625,-0.4413909912109375,0.0198974609375
2015-04-16 19:57:26.939,195,47394.51873270833,-0.5647735595703125,-0.39215087890625,0.017913818359375
2015-04-16 19:57:26.951,196,47394.530504,-0.5851287841796875,-0.4751129150390625,0.005767822265625
2015-04-16 19:57:26.966,197,47394.54011333334,-0.527801513671875,-0.414520263671875,0.006866455078125
2015-04-16 19:57:26.992,198,47394.54983104167,-0.527496337890625,-0.4449920654296875,0.013885498046875
2015-04-16 19:57:26.993,199,47394.55955387501,-0.5239715576171875,-0.4087982177734375,0.013671875
2015-04-16 19:57:26.994,200,47394.56927208334,-0.5645904541015625,-0.429229736328125,0.0092620849609375
2015-04-16 19:57:26.999,201,47394.57898729167,-0.6035919189453125,-0.4172821044921875,0.0027313232421875
2015-04-16 19:57:27.009,202,47394.58881491667,-0.637451171875,-0.4300537109375,0.011932373046875
2015-04-16 19:57:27.019,203,47394.59853141667,-0.67706298828125,-0.464752197265625,0.0056304931640625
2015-04-16 19:57:27.030,204,47394.60825045834,-0.6677093505859375,-0.44561767578125,0.006439208984375
2015-04-16 19:57:27.038,205,47394.61796700001,-0.6708221435546875,-0.52276611328125,0.015655517578125
2015-04-16 19:57:27.048,206,47394.627610625,-0.6905517578125,-0.531585693359375,0.02178955078125
2015-04-16 19:57:27.067,207,47394.63729766667,-0.6978759765625,-0.5792083740234375,0.0152130126953125
2015-04-16 19:57:27.093,208,47394.64706504167,-0.6937103271484375,-0.6115570068359375,0.0251617431640625
2015-04-16 19:57:27.094,209,47394.656734,-0.7332611083984375,-0.6253662109375,0.0344390869140625
2015-04-16 19:57:27.095,210,47394.666452875,-0.8096466064453125,-0.673797607421875,0.030517578125
2015-04-16 19:57:27.096,211,47394.67617058333,-0.8352203369140625,-0.66839599609375,0.0336761474609375
2015-04-16 19:57:27.106,212,47394.68599704167,-0.84625244140625,-0.71038818359375,0.0349884033203125
2015-04-16 19:57:27.116,213,47394.69560816667,-0.8170166015625,-0.703369140625,0.029754638671875
2015-04-16 19:57:27.126,214,47394.70543433334,-0.7799072265625,-0.7087249755859375,0.04022216796875
2015-04-16 19:57:27.135,215,47394.715044875,-0.72344970703125,-0.6680755615234375,0.036529541015625
2015-04-16 19:57:27.144,216,47394.72476387501,-0.7199249267578125,-0.6461181640625,0.0295257568359375
2015-04-16 19:57:27.180,217,47394.73448904167,-0.702178955078125,-0.618316650390625,0.0252685546875
2015-04-16 19:57:27.207,218,47394.74419866667,-0.760009765625,-0.6170501708984375,0.020904541015625
2015-04-16 19:57:27.208,219,47394.75391916667,-0.792205810546875,-0.6174163818359375,0.0212249755859375
2015-04-16 19:57:27.208,220,47394.76363370834,-0.818695068359375,-0.61962890625,0.0214996337890625
2015-04-16 19:57:27.209,221,47394.77335291667,-0.8308868408203125,-0.64068603515625,0.017791748046875
2015-04-16 19:57:27.210,222,47394.78307470834,-0.814727783203125,-0.654754638671875,0.0147552490234375
2015-04-16 19:57:27.212,223,47394.79278920834,-0.7824859619140625,-0.665802001953125,0.011566162109375
2015-04-16 19:57:27.222,224,47394.80261991667,-0.7805633544921875,-0.682891845703125,0.0047454833984375
2015-04-16 19:57:27.232,225,47394.81222779167,-0.78533935546875,-0.67626953125,0.0047607421875
2015-04-16 19:57:27.242,226,47394.82194741667,-0.810028076171875,-0.678436279296875,-0.002838134765625
2015-04-16 19:57:27.252,227,47394.8316665,-0.835845947265625,-0.658721923828125,-0.0095672607421875
2015-04-16 19:57:27.267,228,47394.8413805,-0.856781005859375,-0.6446685791015625,-0.010406494140625
2015-04-16 19:57:27.294,229,47394.85109916667,-0.85931396484375,-0.67138671875,-0.0014190673828125
2015-04-16 19:57:27.295,230,47394.86081420834,-0.8477325439453125,-0.6950531005859375,0.0015411376953125
2015-04-16 19:57:27.296,231,47394.87053737501,-0.8475189208984375,-0.715057373046875,0.0075225830078125
2015-04-16 19:57:27.300,232,47394.88025166667,-0.85198974609375,-0.7332305908203125,0.0174713134765625
2015-04-16 19:57:27.310,233,47394.89008095834,-0.8272857666015625,-0.73297119140625,0.02410888671875
2015-04-16 19:57:27.320,234,47394.89980079167,-0.8490142822265625,-0.731353759765625,0.0292205810546875
2015-04-16 19:57:27.331,235,47394.90940725,-0.8235626220703125,-0.7110748291015625,0.0327911376953125
2015-04-16 19:57:27.340,236,47394.919232625,-0.798919677734375,-0.7032012939453125,0.0374298095703125
2015-04-16 19:57:27.349,237,47394.92884066667,-0.760955810546875,-0.716094970703125,0.0371246337890625
2015-04-16 19:57:27.368,238,47394.938558875,-0.745697021484375,-0.72735595703125,0.0399932861328125
2015-04-16 19:57:27.398,239,47394.94827229167,-0.7408294677734375,-0.749176025390625,0.0381011962890625
2015-04-16 19:57:27.398,240,47394.95799308334,-0.772705078125,-0.780975341796875,0.04345703125
2015-04-16 19:57:27.399,241,47394.967709625,-0.8142547607421875,-0.7995147705078125,0.0419921875
2015-04-16 19:57:27.400,242,47394.97743125,-0.8339080810546875,-0.8349456787109375,0.0403900146484375
2015-04-16 19:57:27.407,243,47394.987260875,-0.837677001953125,-0.8492279052734375,0.0326385498046875
2015-04-16 19:57:27.417,244,47394.996867125,-0.7911834716796875,-0.86297607421875,0.032257080078125
2015-04-16 19:57:27.427,245,47395.00669641667,-0.728057861328125,-0.8422088623046875,0.0197601318359375
2015-04-16 19:57:27.437,246,47395.01630675,-0.736663818359375,-0.8289947509765625,0.020751953125
2015-04-16 19:57:27.447,247,47395.02602325,-0.7589569091796875,-0.7711639404296875,0.0138092041015625
2015-04-16 19:57:27.468,248,47395.035849125,-0.7587890625,-0.7025604248046875,-0.0081024169921875
2015-04-16 19:57:27.498,249,47395.04545679167,-0.7686309814453125,-0.66839599609375,-0.0160369873046875
2015-04-16 19:57:27.499,250,47395.055175375,-0.75726318359375,-0.6682586669921875,-0.0161590576171875
2015-04-16 19:57:27.499,251,47395.06489579167,-0.7548065185546875,-0.627288818359375,-0.02227783203125
2015-04-16 19:57:27.500,252,47395.07461208334,-0.7320709228515625,-0.6260986328125,-0.0215301513671875
2015-04-16 19:57:27.504,253,47395.08444225,-0.695892333984375,-0.6475830078125,-0.0168609619140625
2015-04-16 19:57:27.514,254,47395.09404808334,-0.6786346435546875,-0.6702423095703125,-0.0129852294921875
2015-04-16 19:57:27.524,255,47395.10387345833,-0.7191009521484375,-0.6878662109375,-0.0046539306640625
2015-04-16 19:57:27.534,256,47395.11360454167,-0.715362548828125,-0.6745147705078125,-0.000823974609375
2015-04-16 19:57:27.546,257,47395.12330933334,-0.717010498046875,-0.7002410888671875,0.0042266845703125
2015-04-16 19:57:27.553,258,47395.13291808333,-0.731231689453125,-0.695648193359375,0.0043487548828125
2015-04-16 19:57:27.597,259,47395.14263404167,-0.71771240234375,-0.716461181640625,0.0131378173828125
2015-04-16 19:57:27.597,260,47395.152356125,-0.713043212890625,-0.70404052734375,0.0149993896484375
2015-04-16 19:57:27.598,261,47395.162073,-0.64666748046875,-0.705230712890625,0.022216796875
2015-04-16 19:57:27.598,262,47395.17179583334,-0.6298370361328125,-0.68408203125,0.018035888671875
2015-04-16 19:57:27.602,263,47395.18150958334,-0.621429443359375,-0.671600341796875,0.0168914794921875
2015-04-16 19:57:27.611,264,47395.19122808333,-0.63848876953125,-0.659454345703125,0.02191162109375
2015-04-16 19:57:27.621,265,47395.20105366667,-0.6726531982421875,-0.656005859375,0.0173187255859375
2015-04-16 19:57:27.630,266,47395.21066995834,-0.7093048095703125,-0.6783447265625,0.025634765625
2015-04-16 19:57:27.640,267,47395.22048920834,-0.7714691162109375,-0.720916748046875,0.0264434814453125
2015-04-16 19:57:27.650,268,47395.23010062501,-0.7827911376953125,-0.7267608642578125,0.026580810546875
2015-04-16 19:57:27.693,269,47395.23981258334,-0.8101043701171875,-0.74896240234375,0.0259857177734375
2015-04-16 19:57:27.693,270,47395.24953345834,-0.8108673095703125,-0.782257080078125,0.021240234375
2015-04-16 19:57:27.694,271,47395.25925158334,-0.83343505859375,-0.8157958984375,0.0137786865234375
2015-04-16 19:57:27.695,272,47395.26897,-0.869171142578125,-0.853302001953125,0.011383056640625
2015-04-16 19:57:27.699,273,47395.27868525,-0.8935546875,-0.8935394287109375,0.0068817138671875
2015-04-16 19:57:27.708,274,47395.28840395834,-0.947235107421875,-0.9398040771484375,0.0027313232421875
2015-04-16 19:57:27.718,275,47395.29823654167,-0.98199462890625,-0.98583984375,-0.002593994140625
2015-04-16 19:57:27.728,276,47395.307949125,-1.00726318359375,-1.024200439453125,-0.0011749267578125
2015-04-16 19:57:27.737,277,47395.31767195834,-0.982421875,-1.066726684570312,-0.008087158203125
2015-04-16 19:57:27.747,278,47395.32727770833,-0.9840240478515625,-1.118087768554688,-0.014678955078125
2015-04-16 19:57:27.794,279,47395.33699258334,-1.046066284179688,-1.178741455078125,-0.0147705078125
2015-04-16 19:57:27.794,280,47395.348654125,-1.067886352539062,-1.179931640625,-0.01849365234375
2015-04-16 19:57:27.795,281,47395.358372625,-1.1275634765625,-1.17205810546875,-0.0169677734375
2015-04-16 19:57:27.796,282,47395.368092625,-1.171615600585938,-1.219207763671875,-0.0084381103515625
2015-04-16 19:57:27.798,283,47395.37780875,-1.176315307617188,-1.23162841796875,-0.01324462890625
2015-04-16 19:57:27.808,284,47395.38758091667,-1.160400390625,-1.227584838867188,-0.026214599609375
2015-04-16 19:57:27.817,285,47395.39725283334,-1.145263671875,-1.2188720703125,-0.020477294921875
2015-04-16 19:57:27.827,286,47395.40695995834,-1.090316772460938,-1.22015380859375,-0.01806640625
2015-04-16 19:57:27.836,287,47395.416690375,-1.071624755859375,-1.189483642578125,-0.0193939208984375
2015-04-16 19:57:27.847,288,47395.42639729167,-1.089691162109375,-1.166885375976562,-0.013427734375
2015-04-16 19:57:27.896,289,47395.43622045834,-1.093643188476562,-1.147903442382812,-0.01544189453125
2015-04-16 19:57:27.897,290,47395.445824875,-1.109848022460938,-1.12335205078125,-0.010498046875
2015-04-16 19:57:27.898,291,47395.45555025,-1.087356567382812,-1.08599853515625,-0.006988525390625
2015-04-16 19:57:27.898,292,47395.46526212501,-1.058212280273438,-1.05047607421875,-0.0025177001953125
2015-04-16 19:57:27.899,293,47395.474981375,-1.020645141601562,-1.013870239257812,-0.005035400390625
2015-04-16 19:57:27.906,294,47395.48480870834,-1.0001220703125,-0.95849609375,0.003326416015625
2015-04-16 19:57:27.914,295,47395.49441783334,-0.987060546875,-0.939300537109375,-0.0017852783203125
2015-04-16 19:57:27.924,296,47395.504132875,-0.962371826171875,-0.9285736083984375,0.0096893310546875
2015-04-16 19:57:27.933,297,47395.51385216667,-0.96234130859375,-0.914337158203125,0.020416259765625
2015-04-16 19:57:27.943,298,47395.523569625,-0.95953369140625,-0.9038543701171875,0.024261474609375
2015-04-16 19:57:27.954,299,47395.53339325,-0.973907470703125,-0.8755035400390625,0.0272064208984375
2015-04-16 19:57:27.996,300,47395.54494308334,-0.97491455078125,-0.73468017578125,0.03045654296875
2015-04-16 19:57:27.997,301,47395.55466879167,-0.9912109375,-0.7158050537109375,0.024627685546875
2015-04-16 19:57:27.998,302,47395.56437704167,-0.9960784912109375,-0.7006378173828125,0.0236053466796875
2015-04-16 19:57:27.999,303,47395.57409695833,-0.9953460693359375,-0.6853790283203125,0.014678955078125
2015-04-16 19:57:28.004,304,47395.58381383333,-0.97723388671875,-0.6994476318359375,0.0175323486328125
2015-04-16 19:57:28.013,305,47395.59352916667,-0.9516448974609375,-0.7096099853515625,0.0134124755859375
2015-04-16 19:57:28.022,306,47395.60324995834,-0.9241485595703125,-0.721649169921875,0.00830078125
2015-04-16 19:57:28.032,307,47395.61296391667,-0.8936920166015625,-0.7403411865234375,0.01104736328125
2015-04-16 19:57:28.043,308,47395.62278883334,-0.908905029296875,-0.73858642578125,0.00726318359375
2015-04-16 19:57:28.052,309,47395.63240233334,-0.9127349853515625,-0.7319793701171875,0.0072784423828125
2015-04-16 19:57:28.065,310,47395.64211441667,-0.95343017578125,-0.722015380859375,0.01446533203125
2015-04-16 19:57:28.096,311,47395.65183325001,-0.9639434814453125,-0.70404052734375,0.0164337158203125
2015-04-16 19:57:28.097,312,47395.66155041667,-0.959197998046875,-0.69830322265625,0.020294189453125
2015-04-16 19:57:28.098,313,47395.67127054167,-0.957275390625,-0.7001953125,0.023223876953125
2015-04-16 19:57:28.101,314,47395.68098595834,-0.9506988525390625,-0.6915435791015625,0.0231170654296875
2015-04-16 19:57:28.111,315,47395.69081737501,-0.94122314453125,-0.6772003173828125,0.0318145751953125
2015-04-16 19:57:28.120,316,47395.70054566667,-0.95440673828125,-0.683074951171875,0.034912109375
2015-04-16 19:57:28.130,317,47395.71014441667,-0.96392822265625,-0.6765289306640625,0.0330047607421875
2015-04-16 19:57:28.140,318,47395.719861375,-0.97735595703125,-0.653839111328125,0.03399658203125
2015-04-16 19:57:28.149,319,47395.729575875,-0.979217529296875,-0.6481781005859375,0.039886474609375
2015-04-16 19:57:28.180,320,47395.739295625,-0.992523193359375,-0.6511688232421875,0.03314208984375
2015-04-16 19:57:28.208,321,47395.74900870834,-0.973663330078125,-0.631927490234375,0.03778076171875
2015-04-16 19:57:28.209,322,47395.758729,-0.9715576171875,-0.654754638671875,0.04180908203125
2015-04-16 19:57:28.209,323,47395.76844804167,-0.9922943115234375,-0.6673736572265625,0.0420684814453125
2015-04-16 19:57:28.210,324,47395.78011079167,-1.024658203125,-0.652496337890625,0.0373992919921875
2015-04-16 19:57:28.211,325,47395.78982720833,-1.034164428710938,-0.6497344970703125,0.0364990234375
2015-04-16 19:57:28.219,326,47395.799549875,-1.036209106445312,-0.6373748779296875,0.0315399169921875
2015-04-16 19:57:28.229,327,47395.809268625,-1.058639526367188,-0.658599853515625,0.04168701171875
2015-04-16 19:57:28.239,328,47395.819091,-1.027374267578125,-0.6630096435546875,0.041412353515625
2015-04-16 19:57:28.249,329,47395.82874833333,-1.054656982421875,-0.687103271484375,0.0417938232421875
2015-04-16 19:57:28.268,330,47395.83842154167,-1.084625244140625,-0.7131805419921875,0.0510406494140625
2015-04-16 19:57:28.296,331,47395.84813466667,-1.082672119140625,-0.72552490234375,0.0491180419921875
2015-04-16 19:57:28.297,332,47395.85785608333,-1.111831665039062,-0.7439422607421875,0.052459716796875
2015-04-16 19:57:28.297,333,47395.86757504167,-1.143020629882812,-0.7585601806640625,0.04986572265625
2015-04-16 19:57:28.298,334,47395.87729066667,-1.14398193359375,-0.7614288330078125,0.0479278564453125
2015-04-16 19:57:28.306,335,47395.88700920834,-1.140243530273438,-0.7547149658203125,0.0478668212890625
2015-04-16 19:57:28.317,336,47395.89672408334,-1.135757446289062,-0.7251434326171875,0.043731689453125
2015-04-16 19:57:28.327,337,47395.90644341667,-1.116928100585938,-0.71826171875,0.04156494140625
2015-04-16 19:57:28.336,338,47395.91627279167,-1.084854125976562,-0.694122314453125,0.0440826416015625
2015-04-16 19:57:28.347,339,47395.92588095833,-1.032180786132812,-0.66302490234375,0.0355682373046875
2015-04-16 19:57:28.367,340,47395.93559991667,-0.953857421875,-0.63262939453125,0.0317230224609375
2015-04-16 19:57:28.396,341,47395.945313375,-0.853851318359375,-0.5981597900390625,0.0236968994140625
2015-04-16 19:57:28.397,342,47395.95503391667,-0.7444305419921875,-0.53887939453125,0.026275634765625
2015-04-16 19:57:28.397,343,47395.96475175001,-0.610687255859375,-0.4564208984375,0.0167083740234375
2015-04-16 19:57:28.398,344,47395.97447620834,-0.4468536376953125,-0.3488922119140625,0.0077362060546875
2015-04-16 19:57:28.404,345,47395.98418720833,-0.333465576171875,-0.214324951171875,-0.0067901611328125
2015-04-16 19:57:28.414,346,47395.99390870833,-0.17584228515625,-0.1516265869140625,-0.008636474609375
2015-04-16 19:57:28.424,347,47396.003731,0.0281219482421875,-0.0769805908203125,-0.009002685546875
2015-04-16 19:57:28.433,348,47396.01334170833,0.08306884765625,-0.2086181640625,-0.0088653564453125
2015-04-16 19:57:28.443,349,47396.023166125,0.138763427734375,-0.0775909423828125,-0.0208740234375
2015-04-16 19:57:28.453,350,47396.03288187501,0.0806732177734375,-0.0641937255859375,0.0355987548828125
2015-04-16 19:57:28.467,351,47396.04249158334,0.2655487060546875,-0.2511138916015625,-0.0526580810546875
2015-04-16 19:57:28.497,352,47396.05221058334,-0.0009307861328125,0.089599609375,-0.1116943359375
2015-04-16 19:57:28.498,353,47396.06192241667,0.3092041015625,0.0274505615234375,-0.1065216064453125
2015-04-16 19:57:28.498,354,47396.07164670833,0.382537841796875,0.3650360107421875,-0.3210601806640625
2015-04-16 19:57:28.502,355,47396.08135983333,-0.294097900390625,0.04290771484375,-0.700897216796875
2015-04-16 19:57:28.512,356,47396.09119170834,0.861358642578125,-0.0216522216796875,-0.0507049560546875
2015-04-16 19:57:28.521,357,47396.10086408334,0.510650634765625,-0.0027313232421875,-0.06903076171875
2015-04-16 19:57:28.531,358,47396.11055041667,0.5070037841796875,0.0452880859375,0.0437164306640625
2015-04-16 19:57:28.540,359,47396.12023625,0.2037506103515625,0.1830291748046875,-0.0453643798828125
2015-04-16 19:57:28.550,360,47396.13010491667,0.4604949951171875,0.1368865966796875,0.0879058837890625
2015-04-16 19:57:28.570,361,47396.13967033334,0.2986602783203125,0.181182861328125,-0.0295867919921875
2015-04-16 19:57:28.599,362,47396.14938541667,0.36431884765625,0.031524658203125,-0.0147552490234375
2015-04-16 19:57:28.600,363,47396.15910770834,0.40301513671875,0.1120452880859375,-0.0528411865234375
2015-04-16 19:57:28.600,364,47396.16882504167,0.121734619140625,-0.00152587890625,-0.049560546875
2015-04-16 19:57:28.601,365,47396.17854450001,-0.05462646484375,0.04779052734375,-0.042205810546875
2015-04-16 19:57:28.608,366,47396.18833945833,-0.0380096435546875,0.1012725830078125,-0.0436248779296875
2015-04-16 19:57:28.618,367,47396.197981375,-0.6754608154296875,0.127044677734375,0.0281982421875
2015-04-16 19:57:28.630,368,47396.20780141667,-0.5027923583984375,-0.530853271484375,-0.1037750244140625
2015-04-16 19:57:28.637,369,47396.217525125,-0.549896240234375,0.3960418701171875,0.22698974609375
2015-04-16 19:57:28.647,370,47396.22713525,1.071792602539062,-1.145843505859375,-0.3104095458984375
2015-04-16 19:57:28.668,371,47396.23685720834,-1.268264770507812,-0.0332489013671875,-0.365020751953125
2015-04-16 19:57:28.698,372,47396.24657158334,-0.414794921875,-0.68450927734375,0.0257720947265625
2015-04-16 19:57:28.698,373,47396.25629212501,-1.07305908203125,-0.308807373046875,-0.142578125
2015-04-16 19:57:28.699,374,47396.26601008334,0.0441131591796875,-0.4358673095703125,0.0711822509765625
2015-04-16 19:57:28.700,375,47396.27572675001,-0.9614105224609375,-0.8209991455078125,-0.00067138671875
2015-04-16 19:57:28.705,376,47396.28544404167,-0.0059967041015625,-0.4864654541015625,-0.02825927734375
2015-04-16 19:57:28.717,377,47396.295164125,-0.9769134521484375,-0.4878997802734375,-0.05914306640625
2015-04-16 19:57:28.724,378,47396.30488229167,0.0541229248046875,-0.2806549072265625,-0.1663665771484375
2015-04-16 19:57:28.734,379,47396.31461520834,-0.7555084228515625,-0.2901153564453125,-0.1044769287109375
2015-04-16 19:57:28.748,380,47396.3262535,-0.932830810546875,-0.3869171142578125,0.0410919189453125
2015-04-16 19:57:28.774,381,47396.33597304167,-0.8863677978515625,-0.3035125732421875,0.0215606689453125
2015-04-16 19:57:28.806,382,47396.34568808333,-1.140167236328125,-0.525054931640625,-0.0367584228515625
2015-04-16 19:57:28.807,383,47396.35540641667,-1.316940307617188,-0.4673309326171875,0.0196533203125
2015-04-16 19:57:28.808,384,47396.36512654167,-1.208297729492188,-0.5527191162109375,0.0239410400390625
2015-04-16 19:57:28.809,385,47396.37488858333,-0.885406494140625,-0.5357666015625,0.0354766845703125
2015-04-16 19:57:28.810,386,47396.384559625,-0.72076416015625,-0.5129547119140625,0.0406494140625
2015-04-16 19:57:28.814,387,47396.39427429167,-0.629302978515625,-0.6079864501953125,0.0304107666015625
2015-04-16 19:57:28.823,388,47396.40399204167,-0.6454315185546875,-0.526214599609375,-0.0002593994140625
2015-04-16 19:57:28.833,389,47396.41370791667,-0.7900543212890625,-0.5440826416015625,0.0100555419921875
2015-04-16 19:57:28.843,390,47396.42342204167,-0.836883544921875,-0.594146728515625,0.02056884765625
2015-04-16 19:57:28.852,391,47396.43314104167,-1.126907348632812,-0.647003173828125,0.040313720703125
2015-04-16 19:57:28.892,392,47396.44285879167,-1.16497802734375,-0.724578857421875,0.055816650390625
2015-04-16 19:57:28.892,393,47396.452576125,-1.339752197265625,-0.66278076171875,0.0473785400390625
2015-04-16 19:57:28.893,394,47396.46424125,-1.3348388671875,-0.69696044921875,0.0416107177734375
2015-04-16 19:57:28.894,395,47396.47395170834,-1.245376586914062,-0.5378875732421875,0.0212860107421875
2015-04-16 19:57:28.903,396,47396.48367083334,-1.266433715820312,-0.6162109375,0.032684326171875
2015-04-16 19:57:28.913,397,47396.493389125,-1.09796142578125,-0.49151611328125,0.0255279541015625
2015-04-16 19:57:28.923,398,47396.50310404167,-1.0535888671875,-0.470062255859375,0.026947021484375
2015-04-16 19:57:28.933,399,47396.512930875,-0.9008941650390625,-0.3969268798828125,0.015289306640625
2015-04-16 19:57:28.945,400,47396.5244815,-0.950653076171875,-0.452667236328125,0.01507568359375
2015-04-16 19:57:28.954,401,47396.53419954167,-0.9384765625,-0.446807861328125,0.0090484619140625
2015-04-16 19:57:28.995,402,47396.54391420833,-1.058364868164062,-0.4833984375,0.0162506103515625
2015-04-16 19:57:28.996,403,47396.55363295833,-1.068466186523438,-0.5301513671875,0.013641357421875
2015-04-16 19:57:28.996,404,47396.56335291667,-1.138015747070312,-0.594696044921875,0.0166015625
2015-04-16 19:57:28.997,405,47396.57306908334,-1.087631225585938,-0.6226654052734375,0.0162506103515625
2015-04-16 19:57:29.003,406,47396.58279225,-1.03192138671875,-0.6115570068359375,0.010772705078125
2015-04-16 19:57:29.013,407,47396.59250975,-1.037307739257812,-0.6344757080078125,0.0207366943359375
2015-04-16 19:57:29.023,408,47396.602229125,-1.022476196289062,-0.597198486328125,0.0164794921875
2015-04-16 19:57:29.031,409,47396.61194333334,-0.9833221435546875,-0.5329437255859375,0.0069732666015625
2015-04-16 19:57:29.041,410,47396.62166920833,-1.060791015625,-0.5376739501953125,0.0165557861328125
2015-04-16 19:57:29.051,411,47396.63148875,-1.065704345703125,-0.517730712890625,0.0145263671875
2015-04-16 19:57:29.098,412,47396.64109520834,-1.096054077148438,-0.50762939453125,0.0177154541015625
2015-04-16 19:57:29.099,413,47396.65081258334,-1.029754638671875,-0.5040435791015625,0.02099609375
2015-04-16 19:57:29.099,414,47396.66053033333,-1.041610717773438,-0.5498809814453125,0.0282135009765625
2015-04-16 19:57:29.100,415,47396.67024733334,-1.040573120117188,-0.5622406005859375,0.029266357421875
2015-04-16 19:57:29.100,416,47396.67996616667,-0.9413299560546875,-0.528778076171875,0.0349884033203125
2015-04-16 19:57:29.109,417,47396.689685,-0.97784423828125,-0.572998046875,0.042449951171875
2015-04-16 19:57:29.120,418,47396.69954195833,-0.972412109375,-0.643402099609375,0.054534912109375
2015-04-16 19:57:29.129,419,47396.70911983334,-1.027450561523438,-0.6269073486328125,0.0559539794921875
2015-04-16 19:57:29.139,420,47396.71884350001,-1.183212280273438,-0.6724853515625,0.0645599365234375
2015-04-16 19:57:29.149,421,47396.728556625,-1.25408935546875,-0.684722900390625,0.0692291259765625
2015-04-16 19:57:29.207,422,47396.73827441667,-1.336502075195312,-0.678070068359375,0.0709991455078125
2015-04-16 19:57:29.207,423,47396.74800429167,-1.339370727539062,-0.681884765625,0.067108154296875
2015-04-16 19:57:29.208,424,47396.75770816667,-1.261581420898438,-0.7057342529296875,0.06451416015625
2015-04-16 19:57:29.208,425,47396.767425875,-1.15692138671875,-0.762603759765625,0.069671630859375
2015-04-16 19:57:29.209,426,47396.77714316667,-1.13653564453125,-0.8299407958984375,0.0698089599609375
2015-04-16 19:57:29.210,427,47396.7868625,-1.201171875,-0.915374755859375,0.075775146484375
2015-04-16 19:57:29.217,428,47396.79658279167,-1.281387329101562,-0.956268310546875,0.0747833251953125
2015-04-16 19:57:29.227,429,47396.80630258333,-1.375900268554688,-0.98870849609375,0.0689697265625
2015-04-16 19:57:29.235,430,47396.81601966667,-1.641876220703125,-1.101242065429688,0.084869384765625
2015-04-16 19:57:29.248,431,47396.82573566667,-1.673904418945312,-1.1263427734375,0.083343505859375
2015-04-16 19:57:29.308,432,47396.83545329167,-1.746353149414062,-1.176666259765625,0.090179443359375
2015-04-16 19:57:29.308,433,47396.84517329167,-1.744064331054688,-1.236572265625,0.0865325927734375
2015-04-16 19:57:29.309,434,47396.85489216667,-1.652542114257812,-1.211700439453125,0.07470703125
2015-04-16 19:57:29.309,435,47396.86461191667,-1.597671508789062,-1.212966918945312,0.0702667236328125
2015-04-16 19:57:29.310,436,47396.87433379167,-1.50225830078125,-1.198532104492188,0.062408447265625
2015-04-16 19:57:29.311,437,47396.88404725,-1.441299438476562,-1.145416259765625,0.04681396484375
2015-04-16 19:57:29.313,438,47396.89376633333,-1.4129638671875,-1.132736206054688,0.048431396484375
2015-04-16 19:57:29.323,439,47396.903481875,-1.366134643554688,-1.071304321289062,0.0437469482421875
2015-04-16 19:57:29.334,440,47396.913257,-1.365631103515625,-1.023681640625,0.0366363525390625
2015-04-16 19:57:29.344,441,47396.92303520834,-1.33294677734375,-0.9690399169921875,0.033111572265625
2015-04-16 19:57:29.353,442,47396.93264129167,-1.2928466796875,-0.8896026611328125,0.030364990234375
2015-04-16 19:57:29.365,443,47396.94235570834,-1.2421875,-0.8357086181640625,0.0247039794921875
2015-04-16 19:57:29.398,444,47396.95207816667,-1.16485595703125,-0.787261962890625,0.0286102294921875
2015-04-16 19:57:29.398,445,47396.96179408333,-1.087661743164062,-0.7406768798828125,0.0207672119140625
2015-04-16 19:57:29.399,446,47396.97151833334,-1.066925048828125,-0.7157440185546875,0.027313232421875
2015-04-16 19:57:29.401,447,47396.98123329167,-1.048187255859375,-0.68505859375,0.0289459228515625
2015-04-16 19:57:29.412,448,47396.99106637501,-1.0521240234375,-0.665130615234375,0.0288848876953125
2015-04-16 19:57:29.421,449,47397.000672,-1.062652587890625,-0.65478515625,0.0259857177734375
2015-04-16 19:57:29.430,450,47397.01039408334,-1.065444946289062,-0.652923583984375,0.0309295654296875
2015-04-16 19:57:29.440,451,47397.02021545834,-1.0738525390625,-0.673004150390625,0.0281524658203125
2015-04-16 19:57:29.449,452,47397.02982158334,-1.048171997070312,-0.682220458984375,0.032867431640625
2015-04-16 19:57:29.469,453,47397.03954558333,-1.026397705078125,-0.693389892578125,0.0258331298828125
2015-04-16 19:57:29.500,454,47397.04925600001,-0.9981536865234375,-0.686370849609375,0.017669677734375
2015-04-16 19:57:29.501,455,47397.058974625,-0.98211669921875,-0.679534912109375,0.0174713134765625
2015-04-16 19:57:29.501,456,47397.06869220833,-0.9744110107421875,-0.68707275390625,0.0213775634765625
2015-04-16 19:57:29.502,457,47397.07841066667,-0.95465087890625,-0.6839447021484375,0.0142822265625
2015-04-16 19:57:29.508,458,47397.08813025001,-0.94537353515625,-0.6667022705078125,0.00921630859375
2015-04-16 19:57:29.519,459,47397.097904875,-0.9340362548828125,-0.66278076171875,0.01007080078125
2015-04-16 19:57:29.527,460,47397.10756208334,-0.928436279296875,-0.65887451171875,0.0050811767578125
2015-04-16 19:57:29.537,461,47397.11728291667,-0.936126708984375,-0.646575927734375,0.004119873046875
2015-04-16 19:57:29.547,462,47397.12699679167,-0.956085205078125,-0.6401519775390625,0.0023193359375
2015-04-16 19:57:29.568,463,47397.13671754167,-0.9342498779296875,-0.643707275390625,0.00408935546875
2015-04-16 19:57:29.600,464,47397.14837629167,-0.9189453125,-0.660675048828125,0.0069732666015625
2015-04-16 19:57:29.600,465,47397.15809658333,-0.910247802734375,-0.6729888916015625,0.0138092041015625
2015-04-16 19:57:29.601,466,47397.16781658334,-0.8998260498046875,-0.6766510009765625,0.0117645263671875
2015-04-16 19:57:29.601,467,47397.177535875,-0.8922576904296875,-0.6746673583984375,0.012664794921875
2015-04-16 19:57:29.608,468,47397.18726054167,-0.878173828125,-0.6592864990234375,0.011474609375
2015-04-16 19:57:29.617,469,47397.19697012501,-0.8924713134765625,-0.6432647705078125,0.01348876953125
2015-04-16 19:57:29.627,470,47397.20668691667,-0.899169921875,-0.6309814453125,0.01446533203125
2015-04-16 19:57:29.636,471,47397.21640654167,-0.888824462890625,-0.623260498046875,0.0143280029296875
2015-04-16 19:57:29.645,472,47397.22612579167,-0.895416259765625,-0.6318817138671875,0.011505126953125
2015-04-16 19:57:29.668,473,47397.23584337501,-0.8961944580078125,-0.645233154296875,0.0174713134765625
2015-04-16 19:57:29.699,474,47397.24555966667,-0.8791961669921875,-0.646942138671875,0.01239013671875
2015-04-16 19:57:29.700,475,47397.25527845834,-0.878082275390625,-0.66217041015625,0.0173797607421875
2015-04-16 19:57:29.701,476,47397.26499341667,-0.869537353515625,-0.6649169921875,0.017303466796875
2015-04-16 19:57:29.701,477,47397.274714125,-0.8790130615234375,-0.669769287109375,0.01348876953125
2015-04-16 19:57:29.705,478,47397.28443316667,-0.89227294921875,-0.6699066162109375,0.0136260986328125
2015-04-16 19:57:29.714,479,47397.29415250001,-0.8942718505859375,-0.67181396484375,0.00482177734375
2015-04-16 19:57:29.724,480,47397.3039785,-0.872528076171875,-0.6706085205078125,0.0016632080078125
2015-04-16 19:57:29.733,481,47397.31358808334,-0.86688232421875,-0.6686248779296875,0.0005950927734375
2015-04-16 19:57:29.744,482,47397.32341641667,-0.8422698974609375,-0.674041748046875,-0.0025482177734375
2015-04-16 19:57:29.753,483,47397.33302570834,-0.8082122802734375,-0.667938232421875,-0.0029144287109375
2015-04-16 19:57:29.766,484,47397.34273983334,-0.8167724609375,-0.665191650390625,-0.002838134765625
2015-04-16 19:57:29.793,485,47397.35245862501,-0.80450439453125,-0.6659698486328125,-0.007843017578125
2015-04-16 19:57:29.794,486,47397.36606383334,-0.721221923828125,-0.5489044189453125,-0.01611328125
2015-04-16 19:57:29.795,487,47397.37578129167,-0.6807403564453125,-0.5198974609375,-0.01763916015625
2015-04-16 19:57:29.806,488,47397.38550208334,-0.6599273681640625,-0.513946533203125,-0.015899658203125
2015-04-16 19:57:29.815,489,47397.39521704167,-0.64306640625,-0.49188232421875,-0.01812744140625
2015-04-16 19:57:29.825,490,47397.40506616667,-0.6083984375,-0.450531005859375,-0.0216064453125
2015-04-16 19:57:29.835,491,47397.41468816667,-0.554595947265625,-0.4195098876953125,-0.0164031982421875
2015-04-16 19:57:29.845,492,47397.42448295833,-0.49993896484375,-0.38555908203125,-0.019073486328125
2015-04-16 19:57:29.869,493,47397.43421845834,-0.4434356689453125,-0.343994140625,-0.0188446044921875
2015-04-16 19:57:29.899,494,47397.44380579167,-0.386993408203125,-0.2986297607421875,-0.0215606689453125
2015-04-16 19:57:29.899,495,47397.45352554167,-0.3437042236328125,-0.2638702392578125,-0.02117919921875
2015-04-16 19:57:29.900,496,47397.4651855,-0.4735870361328125,-0.3738250732421875,-0.0243072509765625
2015-04-16 19:57:29.900,497,47397.47490741667,-0.4161224365234375,-0.328460693359375,-0.0201568603515625
2015-04-16 19:57:29.905,498,47397.48462225001,-0.3653564453125,-0.2878875732421875,-0.0247802734375
2015-04-16 19:57:29.915,499,47397.49434316667,-0.323883056640625,-0.2550811767578125,-0.0214080810546875
2015-04-16 19:57:29.924,500,47397.50417637501,-0.2834320068359375,-0.216552734375,-0.0210113525390625
2015-04-16 19:57:29.934,501,47397.5138985,-0.2343902587890625,-0.1931610107421875,-0.0216064453125
2015-04-16 19:57:29.944,502,47397.52360362501,-0.1797332763671875,-0.15924072265625,-0.0213165283203125
2015-04-16 19:57:29.967,503,47397.53332654167,-0.1402130126953125,-0.130218505859375,-0.0247802734375
2015-04-16 19:57:29.997,504,47397.54292579167,-0.114593505859375,-0.1223602294921875,-0.0172119140625
2015-04-16 19:57:29.997,505,47397.552647375,-0.09869384765625,-0.098388671875,-0.018463134765625
2015-04-16 19:57:29.998,506,47397.56236320834,-0.055023193359375,-0.1016998291015625,-0.011016845703125
2015-04-16 19:57:29.998,507,47397.572083125,-0.03515625,-0.101470947265625,-0.0121917724609375
2015-04-16 19:57:30.002,508,47397.58180033333,-0.0474700927734375,-0.099700927734375,-0.0111083984375
2015-04-16 19:57:30.012,509,47397.59164216667,-0.0494537353515625,-0.0997161865234375,-0.018951416015625
2015-04-16 19:57:30.021,510,47397.60135070833,-0.0438232421875,-0.09869384765625,-0.020965576171875
2015-04-16 19:57:30.030,511,47397.61096329167,-0.0529632568359375,-0.1340179443359375,-0.0177459716796875
2015-04-16 19:57:30.041,512,47397.62078716667,-0.0577239990234375,-0.1397552490234375,-0.0206298828125
2015-04-16 19:57:30.051,513,47397.63050166667,-0.1009063720703125,-0.1811981201171875,-0.017059326171875
2015-04-16 19:57:30.096,514,47397.64010708334,-0.1384429931640625,-0.2310791015625,-0.018402099609375
2015-04-16 19:57:30.096,515,47397.64982950001,-0.22528076171875,-0.271087646484375,-0.01934814453125
2015-04-16 19:57:30.097,516,47397.65955116667,-0.2848358154296875,-0.3211669921875,-0.0430755615234375
2015-04-16 19:57:30.098,517,47397.66926479167,-0.419769287109375,-0.3446807861328125,-0.019073486328125
2015-04-16 19:57:30.099,518,47397.678981875,-0.5416107177734375,-0.384124755859375,-0.0186614990234375
2015-04-16 19:57:30.110,519,47397.68870525,-0.7093048095703125,-0.4831390380859375,-0.009674072265625
2015-04-16 19:57:30.119,520,47397.69854516667,-0.8444061279296875,-0.631256103515625,0.0021820068359375
2015-04-16 19:57:30.128,521,47397.70813870834,-0.8966827392578125,-0.7384185791015625,0.000274658203125
2015-04-16 19:57:30.137,522,47397.717854875,-0.9997100830078125,-0.8795166015625,0.006866455078125
2015-04-16 19:57:30.147,523,47397.72757183333,-1.038925170898438,-1.056045532226562,0.0218658447265625
2015-04-16 19:57:30.180,524,47397.73729316667,-1.110855102539062,-1.171096801757812,0.030975341796875
2015-04-16 19:57:30.209,525,47397.74700670833,-1.165451049804688,-1.21929931640625,0.02978515625
2015-04-16 19:57:30.210,526,47397.756726,-1.214752197265625,-1.202743530273438,0.033111572265625
2015-04-16 19:57:30.211,527,47397.76644770834,-1.225357055664062,-1.1790771484375,0.032135009765625
2015-04-16 19:57:30.212,528,47397.77616591667,-1.1944580078125,-1.139678955078125,0.0286865234375
2015-04-16 19:57:30.212,529,47397.78588591667,-1.103347778320312,-1.043487548828125,0.0253753662109375
2015-04-16 19:57:30.216,530,47397.7956005,-0.9927215576171875,-0.91656494140625,0.01190185546875
2015-04-16 19:57:30.225,531,47397.80531983334,-0.864013671875,-0.78851318359375,0.008056640625
2015-04-16 19:57:30.235,532,47397.81514816667,-0.71600341796875,-0.70025634765625,0.009124755859375
2015-04-16 19:57:30.244,533,47397.82475766667,-0.5748138427734375,-0.59869384765625,0.002349853515625
2015-04-16 19:57:30.267,534,47397.83458516667,-0.4636383056640625,-0.520355224609375,0.0028533935546875
2015-04-16 19:57:30.295,535,47397.84419283333,-0.3978118896484375,-0.46630859375,-0.0009918212890625
2015-04-16 19:57:30.295,536,47397.85390983333,-0.3781280517578125,-0.428985595703125,0.0035400390625
2015-04-16 19:57:30.296,537,47397.863633125,-0.377349853515625,-0.4080352783203125,0.004425048828125
2015-04-16 19:57:30.297,538,47397.87334816667,-0.41046142578125,-0.3951263427734375,0.01348876953125
2015-04-16 19:57:30.302,539,47397.883066875,-0.4414825439453125,-0.41455078125,0.0197906494140625
2015-04-16 19:57:30.313,540,47397.892790625,-0.4698028564453125,-0.421539306640625,0.022064208984375
2015-04-16 19:57:30.323,541,47397.90250716667,-0.5150299072265625,-0.4354248046875,0.031402587890625
2015-04-16 19:57:30.332,542,47397.91222441667,-0.5462188720703125,-0.447174072265625,0.0298004150390625
2015-04-16 19:57:30.342,543,47397.92194616667,-0.5865478515625,-0.4857330322265625,0.0372467041015625
2015-04-16 19:57:30.352,544,47397.93174929167,-0.648529052734375,-0.54736328125,0.042083740234375
2015-04-16 19:57:30.393,545,47397.94138245834,-0.69927978515625,-0.5964813232421875,0.0438079833984375
2015-04-16 19:57:30.393,546,47397.95110629167,-0.7405548095703125,-0.6492767333984375,0.043487548828125
2015-04-16 19:57:30.394,547,47397.960825,-0.815673828125,-0.721527099609375,0.050445556640625
2015-04-16 19:57:30.395,548,47397.97054158334,-0.869171142578125,-0.7887420654296875,0.048370361328125
2015-04-16 19:57:30.401,549,47397.98029837501,-0.9228515625,-0.8397674560546875,0.0412750244140625
2015-04-16 19:57:30.410,550,47397.98998616667,-0.97174072265625,-0.891693115234375,0.038055419921875
2015-04-16 19:57:30.420,551,47397.99981075,-0.9972381591796875,-0.9100341796875,0.03350830078125
2015-04-16 19:57:30.430,552,47398.00942229167,-0.99542236328125,-0.907135009765625,0.0285491943359375
2015-04-16 19:57:30.439,553,47398.01926066667,-0.9835052490234375,-0.8774566650390625,0.015533447265625
2015-04-16 19:57:30.451,554,47398.03091133334,-0.9638214111328125,-0.858184814453125,0.0113372802734375
2015-04-16 19:57:30.496,555,47398.04051966667,-0.90924072265625,-0.8251800537109375,0.003753662109375
2015-04-16 19:57:30.497,556,47398.05023820834,-0.850982666015625,-0.7788238525390625,-0.0038909912109375
2015-04-16 19:57:30.497,557,47398.05996404167,-0.8011016845703125,-0.743011474609375,-0.00653076171875
2015-04-16 19:57:30.498,558,47398.06967979167,-0.7521820068359375,-0.7034454345703125,-0.0091705322265625
2015-04-16 19:57:30.499,559,47398.07939579167,-0.705230712890625,-0.6629180908203125,-0.016693115234375
2015-04-16 19:57:30.513,560,47398.08922433334,-0.666656494140625,-0.62347412109375,-0.0133209228515625
2015-04-16 19:57:30.519,561,47398.09883416667,-0.6355438232421875,-0.593658447265625,-0.00592041015625
2015-04-16 19:57:30.529,562,47398.10866504167,-0.614776611328125,-0.582000732421875,-0.0052032470703125
2015-04-16 19:57:30.538,563,47398.11827258334,-0.605316162109375,-0.573333740234375,-0.00042724609375
2015-04-16 19:57:30.548,564,47398.1280915,-0.6043548583984375,-0.5742950439453125,0.0015411376953125
2015-04-16 19:57:30.568,565,47398.139655125,-0.670318603515625,-0.584625244140625,0.0189056396484375
2015-04-16 19:57:30.598,566,47398.1493705,-0.69775390625,-0.5877838134765625,0.0201568603515625
2015-04-16 19:57:30.599,567,47398.15908975001,-0.726959228515625,-0.5957489013671875,0.0254058837890625
2015-04-16 19:57:30.600,568,47398.16881058334,-0.7532958984375,-0.61700439453125,0.0277252197265625
2015-04-16 19:57:30.600,569,47398.17852975,-0.7652587890625,-0.6476287841796875,0.036834716796875
2015-04-16 19:57:30.608,570,47398.18826229167,-0.7744903564453125,-0.67913818359375,0.037078857421875
2015-04-16 19:57:30.619,571,47398.19796670834,-0.794281005859375,-0.70123291015625,0.0314788818359375
2015-04-16 19:57:30.628,572,47398.20780079167,-0.8063812255859375,-0.7270660400390625,0.03369140625
2015-04-16 19:57:30.637,573,47398.21740320833,-0.8213958740234375,-0.743408203125,0.0348968505859375
2015-04-16 19:57:30.647,574,47398.22712595834,-0.8366546630859375,-0.7407073974609375,0.0281829833984375
2015-04-16 19:57:30.668,575,47398.23684404167,-0.8489227294921875,-0.746551513671875,0.026336669921875
2015-04-16 19:57:30.697,576,47398.24656008334,-0.8356781005859375,-0.7445220947265625,0.0281829833984375
2015-04-16 19:57:30.698,577,47398.25628395833,-0.8207244873046875,-0.7319183349609375,0.0191192626953125
2015-04-16 19:57:30.698,578,47398.26600075,-0.8084716796875,-0.7213287353515625,0.0199432373046875
2015-04-16 19:57:30.699,579,47398.27572070833,-0.79254150390625,-0.7097015380859375,0.0148162841796875
2015-04-16 19:57:30.706,580,47398.28555545834,-0.7776031494140625,-0.691436767578125,0.0096893310546875
2015-04-16 19:57:30.715,581,47398.29516183334,-0.7606201171875,-0.6798248291015625,0.01043701171875
2015-04-16 19:57:30.725,582,47398.30499154167,-0.752166748046875,-0.668304443359375,0.0122528076171875
2015-04-16 19:57:30.735,583,47398.31459616667,-0.7333984375,-0.6519012451171875,0.009063720703125
2015-04-16 19:57:30.745,584,47398.324328,-0.727813720703125,-0.6394805908203125,0.0079803466796875
2015-04-16 19:57:30.766,585,47398.33403479167,-0.7107696533203125,-0.63262939453125,0.0116729736328125
2015-04-16 19:57:30.793,586,47398.34375016667,-0.7042236328125,-0.625885009765625,0.0096282958984375
2015-04-16 19:57:30.794,587,47398.35347175,-0.6947174072265625,-0.624847412109375,0.014434814453125
2015-04-16 19:57:30.795,588,47398.36319279167,-0.6899566650390625,-0.6238555908203125,0.015380859375
2015-04-16 19:57:30.795,589,47398.37291241667,-0.687957763671875,-0.629547119140625,0.0193023681640625
2015-04-16 19:57:30.802,590,47398.38262875001,-0.690765380859375,-0.63433837890625,0.02032470703125
2015-04-16 19:57:30.813,591,47398.39234762501,-0.7049560546875,-0.637359619140625,0.020477294921875
2015-04-16 19:57:30.823,592,47398.40221991667,-0.7172088623046875,-0.645111083984375,0.0206298828125
2015-04-16 19:57:30.832,593,47398.41178454167,-0.7218475341796875,-0.6499481201171875,0.0246429443359375
2015-04-16 19:57:30.842,594,47398.42161383334,-0.732177734375,-0.6624298095703125,0.0238189697265625
2015-04-16 19:57:30.850,595,47398.43122304167,-0.733917236328125,-0.6776885986328125,0.0268707275390625
2015-04-16 19:57:30.867,596,47398.44094125,-0.7395782470703125,-0.6929473876953125,0.0211029052734375
2015-04-16 19:57:30.894,597,47398.45066045834,-0.7423553466796875,-0.6929931640625,0.025054931640625
2015-04-16 19:57:30.894,598,47398.460377625,-0.75091552734375,-0.697845458984375,0.0192718505859375
2015-04-16 19:57:30.895,599,47398.47010008334,-0.7574462890625,-0.703643798828125,0.023284912109375
2015-04-16 19:57:30.900,600,47398.479815125,-0.7574920654296875,-0.7064666748046875,0.0174102783203125
2015-04-16 19:57:30.910,601,47398.48964633334,-0.7546539306640625,-0.70452880859375,0.018341064453125
2015-04-16 19:57:30.919,602,47398.49925216667,-0.75555419921875,-0.7054901123046875,0.022308349609375
2015-04-16 19:57:30.932,603,47398.511031,-0.748138427734375,-0.699676513671875,0.0133514404296875
2015-04-16 19:57:30.941,604,47398.52063895833,-0.741485595703125,-0.697723388671875,0.0172119140625
2015-04-16 19:57:30.951,605,47398.530355875,-0.7320709228515625,-0.699493408203125,0.0112457275390625
2015-04-16 19:57:30.966,606,47398.5400735,-0.720672607421875,-0.694610595703125,0.0169830322265625
2015-04-16 19:57:30.996,607,47398.54979191667,-0.7149810791015625,-0.6879119873046875,0.0198516845703125
2015-04-16 19:57:30.997,608,47398.55950908334,-0.7064971923828125,-0.6849517822265625,0.020721435546875
2015-04-16 19:57:30.998,609,47398.56923054167,-0.7083892822265625,-0.6868896484375,0.0188140869140625
2015-04-16 19:57:31.001,610,47398.578946375,-0.7017669677734375,-0.6801605224609375,0.0226287841796875
2015-04-16 19:57:31.009,611,47398.58877870833,-0.6942138671875,-0.679107666015625,0.021575927734375
2015-04-16 19:57:31.018,612,47398.59838254167,-0.695159912109375,-0.6791229248046875,0.021575927734375
2015-04-16 19:57:31.029,613,47398.608209625,-0.6932525634765625,-0.683868408203125,0.019622802734375
2015-04-16 19:57:31.040,614,47398.61988858334,-0.6817626953125,-0.69610595703125,0.02252197265625
2015-04-16 19:57:31.049,615,47398.62959320834,-0.6826934814453125,-0.701812744140625,0.0196075439453125
2015-04-16 19:57:31.067,616,47398.63920020834,-0.68731689453125,-0.7133026123046875,0.02264404296875
2015-04-16 19:57:31.098,617,47398.64891320834,-0.6902008056640625,-0.7104644775390625,0.01971435546875
2015-04-16 19:57:31.098,618,47398.65863129167,-0.7025299072265625,-0.707763671875,0.01983642578125
2015-04-16 19:57:31.099,619,47398.66835445834,-0.705413818359375,-0.7020721435546875,0.02081298828125
2015-04-16 19:57:31.099,620,47398.678066375,-0.7129669189453125,-0.70880126953125,0.017974853515625
2015-04-16 19:57:31.108,621,47398.68778754167,-0.715850830078125,-0.70599365234375,0.016998291015625
2015-04-16 19:57:31.117,622,47398.69750341667,-0.7147979736328125,-0.71075439453125,0.0219268798828125
2015-04-16 19:57:31.128,623,47398.70722595834,-0.7072601318359375,-0.7125396728515625,0.0179290771484375
2015-04-16 19:57:31.136,624,47398.71693675,-0.7043914794921875,-0.720123291015625,0.0159759521484375
2015-04-16 19:57:31.146,625,47398.7266565,-0.71014404296875,-0.7116241455078125,0.0160064697265625
2015-04-16 19:57:31.175,626,47398.73642929167,-0.709228515625,-0.70306396484375,0.0178985595703125
2015-04-16 19:57:31.206,627,47398.746091375,-0.71307373046875,-0.68695068359375,0.0227813720703125
2015-04-16 19:57:31.206,628,47398.755807875,-0.7140960693359375,-0.67364501953125,0.0236968994140625
2015-04-16 19:57:31.207,629,47398.76552879167,-0.7056121826171875,-0.66119384765625,0.028472900390625
2015-04-16 19:57:31.208,630,47398.77524691667,-0.683929443359375,-0.652374267578125,0.0262603759765625
2015-04-16 19:57:31.208,631,47398.78497316667,-0.6498260498046875,-0.651031494140625,0.02886962890625
2015-04-16 19:57:31.215,632,47398.79469037501,-0.6185150146484375,-0.6526031494140625,0.0324859619140625
2015-04-16 19:57:31.225,633,47398.80451708334,-0.5806427001953125,-0.640777587890625,0.0389404296875
2015-04-16 19:57:31.234,634,47398.814252875,-0.5399627685546875,-0.6374664306640625,0.038543701171875
2015-04-16 19:57:31.245,635,47398.82384545833,-0.506988525390625,-0.6190032958984375,0.037139892578125
2015-04-16 19:57:31.267,636,47398.83357095833,-0.46661376953125,-0.5832977294921875,0.0306854248046875
2015-04-16 19:57:31.295,637,47398.84327962501,-0.4241943359375,-0.5533294677734375,0.0320892333984375
2015-04-16 19:57:31.295,638,47398.85300370833,-0.3893890380859375,-0.528167724609375,0.0296630859375
2015-04-16 19:57:31.296,639,47398.86272045834,-0.386810302734375,-0.50433349609375,0.0236358642578125
2015-04-16 19:57:31.297,640,47398.872439375,-0.3804168701171875,-0.4823455810546875,0.017578125
2015-04-16 19:57:31.302,641,47398.882289125,-0.3928070068359375,-0.47296142578125,0.0166473388671875
2015-04-16 19:57:31.312,642,47398.89189075,-0.3918914794921875,-0.4729461669921875,0.0136871337890625
2015-04-16 19:57:31.322,643,47398.90170041667,-0.385406494140625,-0.4614410400390625,0.0086669921875
2015-04-16 19:57:31.332,644,47398.911440125,-0.360015869140625,-0.455413818359375,-0.00042724609375
2015-04-16 19:57:31.341,645,47398.92115020833,-0.36468505859375,-0.4611663818359375,0.001617431640625
2015-04-16 19:57:31.351,646,47398.93085345834,-0.398773193359375,-0.4710693359375,-0.0048980712890625
2015-04-16 19:57:31.395,647,47398.94045695833,-0.4326629638671875,-0.49713134765625,-0.0044403076171875
2015-04-16 19:57:31.396,648,47398.95017504167,-0.4732208251953125,-0.5194854736328125,-0.004913330078125
2015-04-16 19:57:31.397,649,47398.95989591667,-0.5002593994140625,-0.5711822509765625,-0.0024261474609375
2015-04-16 19:57:31.397,650,47398.96961791667,-0.5121307373046875,-0.61798095703125,0.0047760009765625
2015-04-16 19:57:31.399,651,47398.97933391667,-0.5090789794921875,-0.6407928466796875,0.0088043212890625
2015-04-16 19:57:31.409,652,47398.98916008334,-0.5135955810546875,-0.66180419921875,0.0138702392578125
2015-04-16 19:57:31.420,653,47398.99887887501,-0.4803466796875,-0.6690521240234375,0.018463134765625
2015-04-16 19:57:31.429,654,47399.00862545834,-0.455047607421875,-0.628814697265625,0.019989013671875
2015-04-16 19:57:31.439,655,47399.01831420833,-0.444671630859375,-0.615386962890625,0.024749755859375
2015-04-16 19:57:31.447,656,47399.02792262501,-0.4210357666015625,-0.6056060791015625,0.02740478515625
2015-04-16 19:57:31.497,657,47399.03763829167,-0.42022705078125,-0.58563232421875,0.0272979736328125
2015-04-16 19:57:31.497,658,47399.04735683333,-0.436279296875,-0.5820159912109375,0.0343170166015625
2015-04-16 19:57:31.498,659,47399.05707612501,-0.46002197265625,-0.5699310302734375,0.03546142578125
2015-04-16 19:57:31.498,660,47399.06679729167,-0.48553466796875,-0.5721282958984375,0.037689208984375
2015-04-16 19:57:31.499,661,47399.07651304167,-0.4989776611328125,-0.55133056640625,0.0357513427734375
2015-04-16 19:57:31.507,662,47399.08634358334,-0.4944915771484375,-0.522735595703125,0.032623291015625
2015-04-16 19:57:31.516,663,47399.096082375,-0.4794158935546875,-0.5244293212890625,0.025604248046875
2015-04-16 19:57:31.525,664,47399.10566841667,-0.4754791259765625,-0.54058837890625,0.028594970703125
2015-04-16 19:57:31.536,665,47399.11551041667,-0.4821014404296875,-0.5511016845703125,0.0238037109375
2015-04-16 19:57:31.545,666,47399.125106125,-0.4970245361328125,-0.5741119384765625,0.0260162353515625
2015-04-16 19:57:31.567,667,47399.13496154167,-0.53179931640625,-0.605926513671875,0.0294647216796875
2015-04-16 19:57:31.595,668,47399.14453691667,-0.5525665283203125,-0.6251678466796875,0.02288818359375
2015-04-16 19:57:31.595,669,47399.15425641667,-0.5789031982421875,-0.6568603515625,0.0183868408203125
2015-04-16 19:57:31.596,670,47399.16592170834,-0.6370849609375,-0.7326812744140625,0.0153961181640625
2015-04-16 19:57:31.599,671,47399.17563804167,-0.656768798828125,-0.75860595703125,0.015716552734375
2015-04-16 19:57:31.606,672,47399.18547029167,-0.6651763916015625,-0.7815093994140625,0.0110015869140625
2015-04-16 19:57:31.616,673,47399.19508145834,-0.6528167724609375,-0.7861328125,0.0128631591796875
2015-04-16 19:57:31.625,674,47399.20479508334,-0.6264190673828125,-0.7829437255859375,0.0057373046875
2015-04-16 19:57:31.637,675,47399.216572875,-0.6370849609375,-0.7326812744140625,0.0153961181640625
2015-04-16 19:57:31.646,676,47399.22617808334,-0.656768798828125,-0.75860595703125,0.015716552734375
2015-04-16 19:57:31.694,677,47399.23600320834,-0.6651763916015625,-0.7815093994140625,0.0110015869140625
2015-04-16 19:57:31.694,678,47399.24561004167,-0.6528167724609375,-0.7861328125,0.0128631591796875
2015-04-16 19:57:31.695,679,47399.25533166667,-0.6264190673828125,-0.7829437255859375,0.0057373046875
2015-04-16 19:57:31.695,680,47399.26505091667,-0.6141357421875,-0.7761688232421875,0.0075531005859375
2015-04-16 19:57:31.697,681,47399.27476920834,-0.626495361328125,-0.7800750732421875,0.001800537109375
2015-04-16 19:57:31.705,682,47399.284484,-0.6446075439453125,-0.770751953125,-0.00201416015625
2015-04-16 19:57:31.714,683,47399.29421075001,-0.6738739013671875,-0.773956298828125,0.002227783203125
2015-04-16 19:57:31.724,684,47399.304030125,-0.68609619140625,-0.7969207763671875,-0.004425048828125
2015-04-16 19:57:31.734,685,47399.31375191667,-0.6914215087890625,-0.8360137939453125,0.001708984375
2015-04-16 19:57:31.744,686,47399.32336137501,-0.6721954345703125,-0.8776702880859375,-0.000244140625
2015-04-16 19:57:31.793,687,47399.33318408333,-0.6585693359375,-0.9184417724609375,0.0047454833984375
2015-04-16 19:57:31.794,688,47399.34473425,-0.6663970947265625,-0.7482147216796875,0.0079193115234375
2015-04-16 19:57:31.795,689,47399.35445358334,-0.6662750244140625,-0.7548828125,0.013824462890625
2015-04-16 19:57:31.795,690,47399.36417258334,-0.652984619140625,-0.76141357421875,0.01470947265625
2015-04-16 19:57:31.797,691,47399.373888125,-0.63677978515625,-0.7688446044921875,0.01751708984375
2015-04-16 19:57:31.803,692,47399.38371508334,-0.6103515625,-0.76947021484375,0.0113983154296875
2015-04-16 19:57:31.814,693,47399.39332883334,-0.6104888916015625,-0.756134033203125,0.007415771484375
2015-04-16 19:57:31.823,694,47399.4031525,-0.60394287109375,-0.750335693359375,0.0053558349609375
2015-04-16 19:57:31.834,695,47399.41286829167,-0.627685546875,-0.7496490478515625,0.0006561279296875
2015-04-16 19:57:31.843,696,47399.42258958334,-0.659088134765625,-0.73284912109375,-0.0020599365234375
2015-04-16 19:57:31.867,697,47399.43413912501,-0.6560821533203125,-0.751861572265625,-1.52587890625e-05
2015-04-16 19:57:31.896,698,47399.44386362501,-0.6569671630859375,-0.7462005615234375,0.0068206787109375
2015-04-16 19:57:31.897,699,47399.45357758334,-0.6581573486328125,-0.72998046875,-0.0030517578125
2015-04-16 19:57:31.897,700,47399.46329270834,-0.6619110107421875,-0.7366943359375,-0.0039825439453125
2015-04-16 19:57:31.898,701,47399.473014125,-0.65338134765625,-0.7423095703125,-0.0059814453125
2015-04-16 19:57:31.903,702,47399.48283691667,-0.62396240234375,-0.7543182373046875,-0.0072021484375
2015-04-16 19:57:31.912,703,47399.49244820834,-0.5995025634765625,-0.7454376220703125,-0.015350341796875
2015-04-16 19:57:31.922,704,47399.50236329167,-0.652069091796875,-0.7946014404296875,-0.0067291259765625
2015-04-16 19:57:31.935,705,47399.51394083333,-0.6229400634765625,-0.7657318115234375,-0.007171630859375
2015-04-16 19:57:31.944,706,47399.52365708334,-0.6473236083984375,-0.791717529296875,-0.00482177734375
2015-04-16 19:57:31.953,707,47399.53326066667,-0.6647186279296875,-0.753814697265625,-0.0107421875
2015-04-16 19:57:31.966,708,47399.54492041667,-0.8110809326171875,-0.7869415283203125,0.00164794921875
2015-04-16 19:57:31.997,709,47399.55463933334,-0.7975006103515625,-0.81536865234375,0.010498046875
2015-04-16 19:57:31.998,710,47399.56435583334,-0.7106475830078125,-0.7877197265625,0.005584716796875
2015-04-16 19:57:31.998,711,47399.574075,-0.68603515625,-0.78173828125,0.009246826171875
2015-04-16 19:57:32.004,712,47399.58390466667,-0.6837310791015625,-0.8264617919921875,0.0153350830078125
2015-04-16 19:57:32.014,713,47399.59351304167,-0.6283416748046875,-0.7763214111328125,0.0076904296875
2015-04-16 19:57:32.023,714,47399.60329070834,-0.7187347412109375,-0.8221282958984375,0.0205535888671875
2015-04-16 19:57:32.033,715,47399.61294491667,-0.739990234375,-0.8832855224609375,0.0259857177734375
2015-04-16 19:57:32.042,716,47399.62266737501,-0.82135009765625,-0.886138916015625,0.02972412109375
2015-04-16 19:57:32.052,717,47399.63238470833,-0.91595458984375,-0.9005279541015625,0.0277557373046875
2015-04-16 19:57:32.068,718,47399.64209941667,-0.94970703125,-0.940887451171875,0.0312347412109375
2015-04-16 19:57:32.098,719,47399.65181900001,-0.9590301513671875,-0.960968017578125,0.0294647216796875
2015-04-16 19:57:32.099,720,47399.66153704167,-0.9314422607421875,-0.9806365966796875,0.0292816162109375
2015-04-16 19:57:32.099,721,47399.671257375,-0.873626708984375,-0.9989776611328125,0.021942138671875
2015-04-16 19:57:32.100,722,47399.68097433334,-0.86663818359375,-1.057876586914062,0.0172576904296875
2015-04-16 19:57:32.111,723,47399.69069595834,-0.87286376953125,-1.111251831054688,0.0185546875
2015-04-16 19:57:32.120,724,47399.70052516667,-0.9405975341796875,-1.167221069335938,0.0204925537109375
2015-04-16 19:57:32.130,725,47399.71013554167,-1.0419921875,-1.268325805664062,0.029815673828125
2015-04-16 19:57:32.140,726,47399.71996383333,-1.11322021484375,-1.35479736328125,0.036834716796875
2015-04-16 19:57:32.149,727,47399.72956641667,-1.180984497070312,-1.405075073242188,0.0387115478515625
2015-04-16 19:57:32.177,728,47399.73929304167,-1.201278686523438,-1.464340209960938,0.04705810546875
2015-04-16 19:57:32.206,729,47399.74900583334,-1.18243408203125,-1.463134765625,0.041961669921875
2015-04-16 19:57:32.206,730,47399.75872254167,-1.15985107421875,-1.438156127929688,0.045562744140625
2015-04-16 19:57:32.207,731,47399.76843958333,-1.11370849609375,-1.4052734375,0.0449371337890625
2015-04-16 19:57:32.208,732,47399.778157875,-1.073348999023438,-1.363876342773438,0.0404052734375
2015-04-16 19:57:32.208,733,47399.78787708333,-1.054534912109375,-1.334197998046875,0.046966552734375
2015-04-16 19:57:32.217,734,47399.797592625,-1.060333251953125,-1.302886962890625,0.0557098388671875
2015-04-16 19:57:32.228,735,47399.80742258333,-1.0897216796875,-1.294677734375,0.0588836669921875
2015-04-16 19:57:32.237,736,47399.817137875,-1.091827392578125,-1.266159057617188,0.05780029296875
2015-04-16 19:57:32.246,737,47399.82675983333,-1.094131469726562,-1.215728759765625,0.05462646484375
2015-04-16 19:57:32.267,738,47399.83650383334,-1.07818603515625,-1.18701171875,0.059234619140625
2015-04-16 19:57:32.294,739,47399.84617708334,-1.033233642578125,-1.138885498046875,0.048736572265625
2015-04-16 19:57:32.295,740,47399.85589958334,-0.9955596923828125,-1.107086181640625,0.0511627197265625
2015-04-16 19:57:32.296,741,47399.86561616667,-0.9636688232421875,-1.068618774414062,0.0496673583984375
2015-04-16 19:57:32.297,742,47399.87533137501,-0.9508209228515625,-1.026611328125,0.04248046875
2015-04-16 19:57:32.305,743,47399.88513558334,-0.957672119140625,-0.99810791015625,0.0414276123046875
2015-04-16 19:57:32.317,744,47399.89692479167,-0.9955596923828125,-1.107086181640625,0.0511627197265625
2015-04-16 19:57:32.326,745,47399.906431875,-0.9636688232421875,-1.068618774414062,0.0496673583984375
2015-04-16 19:57:32.337,746,47399.91627204167,-0.9508209228515625,-1.026611328125,0.04248046875
2015-04-16 19:57:32.347,747,47399.925866375,-0.957672119140625,-0.99810791015625,0.0414276123046875
2015-04-16 19:57:32.368,748,47399.93569391667,-0.9553070068359375,-0.935272216796875,0.0400848388671875
2015-04-16 19:57:32.399,749,47399.945298625,-0.964935302734375,-0.91253662109375,0.0410614013671875
2015-04-16 19:57:32.399,750,47399.955017125,-0.9507904052734375,-0.903839111328125,0.0418548583984375
2015-04-16 19:57:32.400,751,47399.96473633334,-0.9378814697265625,-0.870361328125,0.033721923828125
2015-04-16 19:57:32.401,752,47399.97445629167,-0.9435272216796875,-0.867584228515625,0.0376739501953125
2015-04-16 19:57:32.403,753,47399.98416837501,-0.9238433837890625,-0.8530426025390625,0.030548095703125
2015-04-16 19:57:32.413,754,47399.99389000001,-0.93255615234375,-0.84075927734375,0.022705078125
2015-04-16 19:57:32.424,755,47400.00371408334,-0.91461181640625,-0.8348236083984375,0.0225067138671875
2015-04-16 19:57:32.433,756,47400.01332520834,-0.880767822265625,-0.8220367431640625,0.012298583984375
2015-04-16 19:57:32.443,757,47400.023150125,-0.8625946044921875,-0.8370819091796875,0.01708984375
2015-04-16 19:57:32.453,758,47400.03286879167,-0.8400421142578125,-0.8253631591796875,0.009979248046875
2015-04-16 19:57:32.497,759,47400.04247191667,-0.8258819580078125,-0.8100128173828125,0.0146484375
2015-04-16 19:57:32.498,760,47400.052192625,-0.817535400390625,-0.801300048828125,0.0066986083984375
2015-04-16 19:57:32.499,761,47400.06190654167,-0.825225830078125,-0.7871246337890625,0.005706787109375
2015-04-16 19:57:32.499,762,47400.071627375,-0.8413848876953125,-0.7758941650390625,0.007781982421875
2015-04-16 19:57:32.501,763,47400.08134141667,-0.8575286865234375,-0.774169921875,0.005950927734375
2015-04-16 19:57:32.511,764,47400.0910655,-0.858428955078125,-0.774200439453125,0.0088958740234375
2015-04-16 19:57:32.521,765,47400.10089029167,-0.8603057861328125,-0.772308349609375,0.011871337890625
2015-04-16 19:57:32.531,766,47400.11049829167,-0.8547210693359375,-0.7674713134765625,0.005889892578125
2015-04-16 19:57:32.543,767,47400.12230816667,-0.837677001953125,-0.7606353759765625,0.0106048583984375
2015-04-16 19:57:32.552,768,47400.13197966667,-0.834869384765625,-0.75775146484375,0.00958251953125
2015-04-16 19:57:32.600,769,47400.14354229167,-0.837677001953125,-0.7606353759765625,0.0106048583984375
2015-04-16 19:57:32.601,770,47400.153248,-0.834869384765625,-0.75775146484375,0.00958251953125
2015-04-16 19:57:32.601,771,47400.16296691667,-0.864166259765625,-0.762847900390625,0.0108795166015625
2015-04-16 19:57:32.602,772,47400.172683375,-0.8773956298828125,-0.764892578125,0.011993408203125
2015-04-16 19:57:32.602,773,47400.18240358333,-0.8633575439453125,-0.74664306640625,0.0088043212890625
2015-04-16 19:57:32.614,774,47400.19184425,-0.8556671142578125,-0.7655792236328125,0.0068817138671875
2015-04-16 19:57:32.615,775,47400.20157925,-0.826202392578125,-0.771942138671875,0.01251220703125
2015-04-16 19:57:32.624,776,47400.21168283334,-0.803497314453125,-0.772613525390625,0.010345458984375
2015-04-16 19:57:32.634,777,47400.22141154167,-0.80145263671875,-0.7944793701171875,0.0104217529296875
2015-04-16 19:57:32.645,778,47400.23113995833,-0.8294830322265625,-0.8072357177734375,0.0313720703125
2015-04-16 19:57:32.668,779,47400.24083291667,-0.839752197265625,-0.822601318359375,0.0345001220703125
2015-04-16 19:57:32.697,780,47400.250435125,-0.806610107421875,-0.8212738037109375,0.0351409912109375
2015-04-16 19:57:32.698,781,47400.260154625,-0.7840728759765625,-0.800079345703125,0.0328521728515625
2015-04-16 19:57:32.698,782,47400.26987383333,-0.776611328125,-0.770538330078125,0.040496826171875
2015-04-16 19:57:32.699,783,47400.27959445833,-0.771148681640625,-0.74951171875,0.035430908203125
2015-04-16 19:57:32.704,784,47400.289424125,-0.7721710205078125,-0.735260009765625,0.0373382568359375
2015-04-16 19:57:32.713,785,47400.29903079167,-0.7762298583984375,-0.7076873779296875,0.0333099365234375
2015-04-16 19:57:32.723,786,47400.308859,-0.7734527587890625,-0.6971893310546875,0.034210205078125
2015-04-16 19:57:32.733,787,47400.31858766667,-0.7347869873046875,-0.675811767578125,0.0337371826171875
2015-04-16 19:57:32.742,788,47400.328184875,-0.6793365478515625,-0.6285400390625,0.0290374755859375
2015-04-16 19:57:32.752,789,47400.33796704167,-0.6106109619140625,-0.5858612060546875,0.0222625732421875
2015-04-16 19:57:32.797,790,47400.347620125,-0.538177490234375,-0.5364837646484375,0.0144500732421875
2015-04-16 19:57:32.797,791,47400.35733908333,-0.4639739990234375,-0.469940185546875,0.00653076171875
2015-04-16 19:57:32.798,792,47400.367060625,-0.3823089599609375,-0.3852386474609375,-0.0005645751953125
2015-04-16 19:57:32.798,793,47400.37677358334,-0.3175201416015625,-0.321685791015625,-0.0064239501953125
2015-04-16 19:57:32.800,794,47400.38649183333,-0.2573699951171875,-0.2648468017578125,-0.009246826171875
2015-04-16 19:57:32.811,795,47400.39630070834,-0.2057037353515625,-0.220458984375,-0.0158538818359375
2015-04-16 19:57:32.821,796,47400.40604933334,-0.1804046630859375,-0.19158935546875,-0.019195556640625
2015-04-16 19:57:32.830,797,47400.41564958334,-0.1624603271484375,-0.1743011474609375,-0.0135345458984375
2015-04-16 19:57:32.839,798,47400.42547008333,-0.153900146484375,-0.1751556396484375,-0.00970458984375
2015-04-16 19:57:32.849,799,47400.435081875,-0.1615142822265625,-0.167633056640625,-0.0086822509765625
2015-04-16 19:57:32.897,800,47400.44480045834,-0.170166015625,-0.158203125,-0.0145416259765625
2015-04-16 19:57:32.898,801,47400.45451216667,-0.177703857421875,-0.1563873291015625,-0.0095672607421875
2015-04-16 19:57:32.899,802,47400.46423091667,-0.1777191162109375,-0.1602020263671875,-0.0134735107421875
2015-04-16 19:57:32.899,803,47400.47395145833,-0.16729736328125,-0.161041259765625,-0.0135650634765625
2015-04-16 19:57:32.900,804,47400.48366733333,-0.1691436767578125,-0.1601104736328125,-0.0096282958984375
2015-04-16 19:57:32.908,805,47400.493387,-0.159698486328125,-0.1638031005859375,-0.0126495361328125
2015-04-16 19:57:32.917,806,47400.50310045834,-0.1643218994140625,-0.1771697998046875,-0.0125274658203125
2015-04-16 19:57:32.927,807,47400.51281970834,-0.16986083984375,-0.194366455078125,-0.0114288330078125
2015-04-16 19:57:32.938,808,47400.52253925,-0.1906890869140625,-0.2003021240234375,-0.014129638671875
2015-04-16 19:57:32.947,809,47400.532255875,-0.22760009765625,-0.2149810791015625,-0.02056884765625
2015-04-16 19:57:32.995,810,47400.54197358333,-0.2456817626953125,-0.2113494873046875,-0.0272979736328125
2015-04-16 19:57:32.996,811,47400.55169154167,-0.301177978515625,-0.247222900390625,-0.0177459716796875
2015-04-16 19:57:32.996,812,47400.56140875,-0.3388214111328125,-0.28570556640625,-0.0230865478515625
2015-04-16 19:57:32.997,813,47400.57113025001,-0.3968658447265625,-0.3587188720703125,-0.0123291015625
2015-04-16 19:57:32.999,814,47400.58084533334,-0.4333648681640625,-0.4190673828125,-0.0146331787109375
2015-04-16 19:57:33.004,815,47400.59056312501,-0.5000457763671875,-0.4817047119140625,-0.008758544921875
2015-04-16 19:57:33.014,816,47400.60028420833,-0.5505218505859375,-0.5641326904296875,-0.0039520263671875
2015-04-16 19:57:33.024,817,47400.61009608334,-0.6095123291015625,-0.6457061767578125,-3.0517578125e-05
2015-04-16 19:57:33.034,818,47400.61983079167,-0.68267822265625,-0.7283935546875,0.0059967041015625
2015-04-16 19:57:33.044,819,47400.62944158333,-0.7595672607421875,-0.8064117431640625,0.0198974609375
2015-04-16 19:57:33.066,820,47400.63915495833,-0.5579376220703125,-0.58135986328125,-0.0018157958984375
2015-04-16 19:57:33.096,821,47400.64887104167,-0.62353515625,-0.6639556884765625,0.0041351318359375
2015-04-16 19:57:33.097,822,47400.6585905,-0.700531005859375,-0.7381439208984375,0.0121002197265625
2015-04-16 19:57:33.097,823,47400.66830945833,-0.7745513916015625,-0.8218231201171875,0.0240325927734375
2015-04-16 19:57:33.098,824,47400.67802770834,-0.818511962890625,-0.88800048828125,0.027740478515625
2015-04-16 19:57:33.104,825,47400.68774408333,-0.881378173828125,-0.955352783203125,0.035552978515625
2015-04-16 19:57:33.114,826,47400.69746445834,-0.93585205078125,-1.0045166015625,0.040252685546875
2015-04-16 19:57:33.123,827,47400.70718400001,-0.950042724609375,-1.014190673828125,0.0365142822265625
2015-04-16 19:57:33.132,828,47400.71689516667,-0.948089599609375,-1.017974853515625,0.0384674072265625
2015-04-16 19:57:33.143,829,47400.726723125,-0.9483489990234375,-0.9941558837890625,0.0314788818359375
2015-04-16 19:57:33.152,830,47400.73632795834,-0.9033203125,-0.949859619140625,0.025909423828125
2015-04-16 19:57:33.174,831,47400.74604383334,-0.841400146484375,-0.88726806640625,0.0161590576171875
2015-04-16 19:57:33.204,832,47400.755764,-0.7756500244140625,-0.8246307373046875,0.0113067626953125
2015-04-16 19:57:33.204,833,47400.76547845834,-0.7304840087890625,-0.7908172607421875,0.00775146484375
2015-04-16 19:57:33.205,834,47400.77519462501,-0.669525146484375,-0.7225189208984375,0.001922607421875
2015-04-16 19:57:33.206,835,47400.78491358334,-0.618804931640625,-0.665802001953125,0.0011444091796875
2015-04-16 19:57:33.213,836,47400.79463195834,-0.57183837890625,-0.6195831298828125,-0.000518798828125
2015-04-16 19:57:33.223,837,47400.80445716667,-0.5626678466796875,-0.586151123046875,-0.00372314453125
2015-04-16 19:57:33.233,838,47400.814068,-0.5599517822265625,-0.5699462890625,-0.0048065185546875
2015-04-16 19:57:33.242,839,47400.82386300001,-0.5684356689453125,-0.5615081787109375,0.0030975341796875
2015-04-16 19:57:33.251,840,47400.83350208333,-0.5760345458984375,-0.562530517578125,0.000244140625
2015-04-16 19:57:33.269,841,47400.84322,-0.58447265625,-0.568359375,0.0042572021484375
2015-04-16 19:57:33.298,842,47400.85293879167,-0.5843963623046875,-0.57122802734375,0.0081939697265625
2015-04-16 19:57:33.298,843,47400.862658625,-0.5862274169921875,-0.576019287109375,0.01019287109375
2015-04-16 19:57:33.299,844,47400.87238220833,-0.6022491455078125,-0.5914154052734375,0.00848388671875
2015-04-16 19:57:33.300,845,47400.88209654167,-0.6172027587890625,-0.606842041015625,0.0135955810546875
2015-04-16 19:57:33.310,846,47400.89193404167,-0.6388092041015625,-0.6261138916015625,0.015869140625
2015-04-16 19:57:33.320,847,47400.90154741667,-0.6774139404296875,-0.65985107421875,0.013458251953125
2015-04-16 19:57:33.329,848,47400.91125925,-0.7131195068359375,-0.6897735595703125,0.01690673828125
2015-04-16 19:57:33.339,849,47400.92097820833,-0.7423095703125,-0.7110443115234375,0.01824951171875
2015-04-16 19:57:33.350,850,47400.930781125,-0.7723541259765625,-0.74468994140625,0.0187225341796875
2015-04-16 19:57:33.368,851,47400.94041391667,-0.78839111328125,-0.755340576171875,0.0179443359375
2015-04-16 19:57:33.398,852,47400.95013025,-0.8137969970703125,-0.7689666748046875,0.021209716796875
2015-04-16 19:57:33.399,853,47400.95985295834,-0.8214111328125,-0.777587890625,0.013458251953125
2015-04-16 19:57:33.400,854,47400.96957429167,-0.8289642333984375,-0.777679443359375,0.0145111083984375
2015-04-16 19:57:33.400,855,47400.979284,-0.77337646484375,-0.752288818359375,0.0079803466796875
2015-04-16 19:57:33.409,856,47400.98911329167,-0.7575225830078125,-0.7245025634765625,0.0057373046875
2015-04-16 19:57:33.418,857,47400.99872670833,-0.7425384521484375,-0.70623779296875,0.0035247802734375
2015-04-16 19:57:33.429,858,47401.00857858334,-0.7303466796875,-0.6908721923828125,0.0033416748046875
2015-04-16 19:57:33.438,859,47401.01827004167,-0.718231201171875,-0.6650390625,0.0030975341796875
2015-04-16 19:57:33.448,860,47401.027889375,-0.710723876953125,-0.655426025390625,0.0019989013671875
2015-04-16 19:57:33.469,861,47401.03759991667,-0.7106781005859375,-0.658294677734375,0.0049591064453125
2015-04-16 19:57:33.499,862,47401.049258375,-0.7107086181640625,-0.6506805419921875,0.005889892578125
2015-04-16 19:57:33.500,863,47401.05897745833,-0.707916259765625,-0.6449432373046875,0.005828857421875
2015-04-16 19:57:33.500,864,47401.06869579167,-0.7013092041015625,-0.6429595947265625,0.005767822265625
2015-04-16 19:57:33.501,865,47401.07841279167,-0.697418212890625,-0.646759033203125,0.0116119384765625
2015-04-16 19:57:33.508,866,47401.08824208334,-0.692718505859375,-0.6409912109375,0.01251220703125
2015-04-16 19:57:33.517,867,47401.09785479167,-0.6927032470703125,-0.6400604248046875,0.0144805908203125
2015-04-16 19:57:33.528,868,47401.107679375,-0.6955718994140625,-0.641021728515625,0.011566162109375
2015-04-16 19:57:33.537,869,47401.11729808334,-0.7049713134765625,-0.645904541015625,0.0146331787109375
2015-04-16 19:57:33.548,870,47401.12894683333,-0.7040863037109375,-0.640167236328125,0.01165771484375
2015-04-16 19:57:33.567,871,47401.13867145834,-0.712554931640625,-0.648834228515625,0.01080322265625
2015-04-16 19:57:33.597,872,47401.14838575001,-0.716156005859375,-0.661285400390625,0.0187530517578125
2015-04-16 19:57:33.598,873,47401.15810737501,-0.7274322509765625,-0.6756591796875,0.0169677734375
2015-04-16 19:57:33.599,874,47401.16782612501,-0.7329864501953125,-0.690948486328125,0.01806640625
2015-04-16 19:57:33.602,875,47401.17754445833,-0.7386627197265625,-0.69769287109375,0.0152130126953125
2015-04-16 19:57:33.607,876,47401.18737445834,-0.74420166015625,-0.706329345703125,0.020233154296875
2015-04-16 19:57:33.617,877,47401.19710183334,-0.74334716796875,-0.7110443115234375,0.0113983154296875
2015-04-16 19:57:33.627,878,47401.20680720833,-0.7462158203125,-0.7091522216796875,0.0104522705078125
2015-04-16 19:57:33.636,879,47401.21653170833,-0.7453155517578125,-0.706298828125,0.007476806640625
2015-04-16 19:57:33.647,880,47401.226131125,-0.742401123046875,-0.70721435546875,0.0133209228515625
2015-04-16 19:57:33.668,881,47401.23595879167,-0.72821044921875,-0.7089691162109375,0.0112457275390625
2015-04-16 19:57:33.698,882,47401.24556383333,-0.7310943603515625,-0.708984375,0.007354736328125
2015-04-16 19:57:33.699,883,47401.25528345833,-0.720672607421875,-0.709808349609375,0.00921630859375
2015-04-16 19:57:33.699,884,47401.26500366667,-0.714019775390625,-0.711639404296875,0.0081939697265625
2015-04-16 19:57:33.700,885,47401.27472150001,-0.7205657958984375,-0.7155303955078125,0.013153076171875
2015-04-16 19:57:33.704,886,47401.28455483334,-0.719635009765625,-0.7164764404296875,0.011199951171875
2015-04-16 19:57:33.713,887,47401.29416295834,-0.7205657958984375,-0.713653564453125,0.015106201171875
2015-04-16 19:57:33.724,888,47401.30398875001,-0.72344970703125,-0.7165069580078125,0.00927734375
2015-04-16 19:57:33.734,889,47401.3137195,-0.7148284912109375,-0.7097930908203125,0.02093505859375
2015-04-16 19:57:33.745,890,47401.325260375,-0.7148284912109375,-0.7079010009765625,0.01995849609375
2015-04-16 19:57:33.768,891,47401.33498154167,-0.7111358642578125,-0.7040252685546875,0.015960693359375
2015-04-16 19:57:33.795,892,47401.34469658334,-0.70074462890625,-0.6991424560546875,0.0178070068359375
2015-04-16 19:57:33.795,893,47401.35441979167,-0.69781494140625,-0.7029571533203125,0.022705078125
2015-04-16 19:57:33.796,894,47401.36413891667,-0.6968536376953125,-0.704833984375,0.022705078125
2015-04-16 19:57:33.797,895,47401.37385333334,-0.6949615478515625,-0.709564208984375,0.0207366943359375
2015-04-16 19:57:33.804,896,47401.38369991667,-0.6882781982421875,-0.71234130859375,0.0216827392578125
2015-04-16 19:57:33.813,897,47401.393298125,-0.6881256103515625,-0.7171478271484375,0.030548095703125
2015-04-16 19:57:33.823,898,47401.40313766667,-0.6861724853515625,-0.7247467041015625,0.0305633544921875
2015-04-16 19:57:33.833,899,47401.41274233333,-0.685272216796875,-0.720916748046875,0.0295562744140625
2015-04-16 19:57:33.842,900,47401.42246383333,-0.684356689453125,-0.719940185546875,0.0275726318359375
2015-04-16 19:57:33.852,901,47401.43227979167,-0.68817138671875,-0.719970703125,0.024658203125
2015-04-16 19:57:33.893,902,47401.441885125,-0.6871490478515625,-0.7266387939453125,0.0276336669921875
2015-04-16 19:57:33.893,903,47401.45160733334,-0.6956787109375,-0.729583740234375,0.0257720947265625
2015-04-16 19:57:33.894,904,47401.46132566667,-0.6994781494140625,-0.7315216064453125,0.023834228515625
2015-04-16 19:57:33.895,905,47401.47105020833,-0.69281005859375,-0.735260009765625,0.0247802734375
2015-04-16 19:57:33.901,906,47401.48076783334,-0.694671630859375,-0.7381439208984375,0.0267791748046875
2015-04-16 19:57:33.911,907,47401.49048283334,-0.68804931640625,-0.7342681884765625,0.026702880859375
2015-04-16 19:57:33.920,908,47401.50030966667,-0.6861724853515625,-0.7342376708984375,0.02471923828125
2015-04-16 19:57:33.930,909,47401.509921625,-0.682373046875,-0.7313385009765625,0.0285797119140625
2015-04-16 19:57:33.940,910,47401.51974745833,-0.67962646484375,-0.722747802734375,0.0265655517578125
2015-04-16 19:57:33.950,911,47401.52941033334,-0.67950439453125,-0.730377197265625,0.0305328369140625
2015-04-16 19:57:33.997,912,47401.539077375,-0.688018798828125,-0.7342681884765625,0.028656005859375
2015-04-16 19:57:33.998,913,47401.54879433334,-0.684234619140625,-0.7313690185546875,0.03057861328125
2015-04-16 19:57:33.999,914,47401.55851725,-0.6889495849609375,-0.7295379638671875,0.0335693359375
2015-04-16 19:57:33.999,915,47401.56823816667,-0.6785430908203125,-0.735107421875,0.0295562744140625
2015-04-16 19:57:34.000,916,47401.57795295834,-0.669097900390625,-0.731201171875,0.031402587890625
2015-04-16 19:57:34.008,917,47401.58769329167,-0.6720123291015625,-0.726470947265625,0.027496337890625
2015-04-16 19:57:34.017,918,47401.59739291667,-0.66436767578125,-0.729248046875,0.0303802490234375
2015-04-16 19:57:34.027,919,47401.60711383334,-0.656890869140625,-0.7215423583984375,0.027313232421875
2015-04-16 19:57:34.038,920,47401.61693720834,-0.659698486328125,-0.72064208984375,0.0312652587890625
2015-04-16 19:57:34.047,921,47401.62654904167,-0.6370086669921875,-0.7184600830078125,0.0290679931640625
2015-04-16 19:57:34.095,922,47401.63626558334,-0.628509521484375,-0.7230987548828125,0.02508544921875
2015-04-16 19:57:34.095,923,47401.64598066667,-0.613189697265625,-0.7381591796875,0.0289459228515625
2015-04-16 19:57:34.096,924,47401.655700875,-0.6046142578125,-0.7428436279296875,0.031829833984375
2015-04-16 19:57:34.096,925,47401.66542029167,-0.59613037109375,-0.73797607421875,0.0297698974609375
2015-04-16 19:57:34.098,926,47401.675135875,-0.607452392578125,-0.7419281005859375,0.0318603515625
2015-04-16 19:57:34.106,927,47401.684858375,-0.6065216064453125,-0.741912841796875,0.029876708984375
2015-04-16 19:57:34.115,928,47401.69457879167,-0.586883544921875,-0.71881103515625,0.023681640625
2015-04-16 19:57:34.127,929,47401.7063475,-0.5802459716796875,-0.6016693115234375,0.01910400390625
2015-04-16 19:57:34.136,930,47401.71597254167,-0.5699310302734375,-0.58538818359375,0.0199127197265625
2015-04-16 19:57:34.145,931,47401.725674125,-0.5538482666015625,-0.5785675048828125,0.0246429443359375
2015-04-16 19:57:34.205,932,47401.73539029167,-0.5321502685546875,-0.5640411376953125,0.02630615234375
2015-04-16 19:57:34.206,933,47401.74510750001,-0.5237579345703125,-0.544921875,0.0261383056640625
2015-04-16 19:57:34.206,934,47401.75483275,-0.523193359375,-0.4973297119140625,0.0239410400390625
2015-04-16 19:57:34.207,935,47401.76454954167,-0.518951416015625,-0.439208984375,0.0186920166015625
2015-04-16 19:57:34.207,936,47401.774265375,-0.4957275390625,-0.3989410400390625,0.0074615478515625
2015-04-16 19:57:34.208,937,47401.78398320833,-0.4817352294921875,-0.359771728515625,0.014007568359375
2015-04-16 19:57:34.213,938,47401.79370316667,-0.461090087890625,-0.339569091796875,0.0117645263671875
2015-04-16 19:57:34.224,939,47401.80342445834,-0.429901123046875,-0.3344268798828125,0.0084686279296875
2015-04-16 19:57:34.233,940,47401.81313754167,-0.3902435302734375,-0.3273162841796875,0.0051116943359375
2015-04-16 19:57:34.243,941,47401.82285716667,-0.3485260009765625,-0.344879150390625,-0.0010833740234375
2015-04-16 19:57:34.252,942,47401.83257595834,-0.3160552978515625,-0.379730224609375,0.000732421875
2015-04-16 19:57:34.268,943,47401.84229391667,-0.3026123046875,-0.406219482421875,-0.000244140625
2015-04-16 19:57:34.294,944,47401.85201141667,-0.2892608642578125,-0.418426513671875,-0.00030517578125
2015-04-16 19:57:34.295,945,47401.86173041667,-0.28076171875,-0.4183349609375,-0.0013885498046875
2015-04-16 19:57:34.296,946,47401.87144995834,-0.2693328857421875,-0.4277191162109375,-0.0014495849609375
2015-04-16 19:57:34.301,947,47401.88117133333,-0.2721099853515625,-0.4524688720703125,-0.0111083984375
2015-04-16 19:57:34.311,948,47401.89099979167,-0.31671142578125,-0.44439697265625,-0.0136566162109375
2015-04-16 19:57:34.321,949,47401.90060391667,-0.3726043701171875,-0.4374237060546875,-0.013153076171875
2015-04-16 19:57:34.330,950,47401.91032591667,-0.4254608154296875,-0.4532623291015625,-0.0086517333984375
2015-04-16 19:57:34.341,951,47401.92014975,-0.459381103515625,-0.4755401611328125,-0.008209228515625
2015-04-16 19:57:34.350,952,47401.92976470834,-0.464874267578125,-0.506988525390625,-0.0119171142578125
2015-04-16 19:57:34.368,953,47401.939481,-0.4466094970703125,-0.532501220703125,-0.0051116943359375
2015-04-16 19:57:34.394,954,47401.949193375,-0.4094085693359375,-0.571075439453125,-0.0062408447265625
2015-04-16 19:57:34.394,955,47401.95891545834,-0.37042236328125,-0.5953826904296875,-0.0074920654296875
2015-04-16 19:57:34.395,956,47401.96863600001,-0.3590087890625,-0.6104583740234375,-0.012420654296875
2015-04-16 19:57:34.399,957,47401.97835554167,-0.3614501953125,-0.65618896484375,-0.00628662109375
2015-04-16 19:57:34.408,958,47401.98818520833,-0.403656005859375,-0.7042694091796875,-0.0036773681640625
2015-04-16 19:57:34.418,959,47401.99778879167,-0.4685516357421875,-0.757354736328125,0.001129150390625
2015-04-16 19:57:34.427,960,47402.00751191667,-0.5221405029296875,-0.7969970703125,0.00677490234375
2015-04-16 19:57:34.437,961,47402.01733945833,-0.5524749755859375,-0.7897491455078125,0.00994873046875
2015-04-16 19:57:34.447,962,47402.026950125,-0.553253173828125,-0.8059234619140625,0.0129852294921875
2015-04-16 19:57:34.467,963,47402.03666770834,-0.5522308349609375,-0.8031005859375,0.0208282470703125
2015-04-16 19:57:34.493,964,47402.04638283334,-0.54681396484375,-0.7697296142578125,0.0176544189453125
2015-04-16 19:57:34.495,965,47402.05610308333,-0.551849365234375,-0.7364654541015625,0.01556396484375
2015-04-16 19:57:34.495,966,47402.06582170833,-0.6057281494140625,-0.7408905029296875,0.0200347900390625
2015-04-16 19:57:34.496,967,47402.07553870833,-0.6739959716796875,-0.7264556884765625,0.0196533203125
2015-04-16 19:57:34.505,968,47402.08525920834,-0.7424468994140625,-0.6872711181640625,0.0220794677734375
2015-04-16 19:57:34.516,969,47402.09498133334,-0.7938995361328125,-0.6497802734375,0.017486572265625
2015-04-16 19:57:34.525,970,47402.10480525,-0.81103515625,-0.6518402099609375,0.0098114013671875
2015-04-16 19:57:34.534,971,47402.11441270834,-0.7746734619140625,-0.69049072265625,0.0165252685546875
2015-04-16 19:57:34.545,972,47402.124245625,-0.7203216552734375,-0.7355499267578125,0.0211029052734375
2015-04-16 19:57:34.567,973,47402.13396154167,-0.6695404052734375,-0.805419921875,0.027862548828125
2015-04-16 19:57:34.595,974,47402.14356895834,-0.6263580322265625,-0.8734588623046875,0.032684326171875
2015-04-16 19:57:34.596,975,47402.15328933334,-0.6337432861328125,-0.900177001953125,0.031890869140625
2015-04-16 19:57:34.597,976,47402.16300829167,-0.655670166015625,-0.8823394775390625,0.0300750732421875
2015-04-16 19:57:34.597,977,47402.17273254167,-0.7383270263671875,-0.8385772705078125,0.034576416015625
2015-04-16 19:57:34.602,978,47402.182563375,-0.8306121826171875,-0.785369873046875,0.0293121337890625
2015-04-16 19:57:34.612,979,47402.19216604167,-0.886993408203125,-0.716552734375,0.0295257568359375
2015-04-16 19:57:34.622,980,47402.20199745834,-0.9042510986328125,-0.68914794921875,0.0275726318359375
2015-04-16 19:57:34.632,981,47402.211605625,-0.8826446533203125,-0.6746063232421875,0.02435302734375
2015-04-16 19:57:34.642,982,47402.22143354167,-0.8257598876953125,-0.6768341064453125,0.027740478515625
2015-04-16 19:57:34.651,983,47402.23115195834,-0.7610931396484375,-0.70941162109375,0.0302276611328125
2015-04-16 19:57:34.669,984,47402.24075791667,-0.7068023681640625,-0.7459259033203125,0.0347900390625
2015-04-16 19:57:34.697,985,47402.25047983334,-0.689666748046875,-0.756195068359375,0.0356597900390625
2015-04-16 19:57:34.698,986,47402.26019895833,-0.7093658447265625,-0.7764129638671875,0.0388946533203125
2015-04-16 19:57:34.698,987,47402.26992066667,-0.7541656494140625,-0.7483673095703125,0.0313262939453125
2015-04-16 19:57:34.699,988,47402.279631875,-0.780792236328125,-0.7305755615234375,0.033477783203125
2015-04-16 19:57:34.710,989,47402.28945741667,-0.7985992431640625,-0.7526702880859375,0.03472900390625
2015-04-16 19:57:34.718,990,47402.29906995834,-0.7852935791015625,-0.7582244873046875,0.0346221923828125
2015-04-16 19:57:34.729,991,47402.30878441667,-0.736785888671875,-0.775787353515625,0.0420989990234375
2015-04-16 19:57:34.738,992,47402.318502875,-0.7509765625,-0.7750091552734375,0.0442047119140625
2015-04-16 19:57:34.748,993,47402.32822158334,-0.7452239990234375,-0.77496337890625,0.050048828125
2015-04-16 19:57:34.768,994,47402.337940625,-0.7491607666015625,-0.7550201416015625,0.0499725341796875
2015-04-16 19:57:34.795,995,47402.34767691667,-0.779632568359375,-0.744873046875,0.0413818359375
2015-04-16 19:57:34.796,996,47402.3573745,-0.780059814453125,-0.7934417724609375,0.0534210205078125
2015-04-16 19:57:34.797,997,47402.36709083334,-0.8001861572265625,-0.77557373046875,0.0456695556640625
2015-04-16 19:57:34.800,998,47402.37875575,-0.8417816162109375,-0.7760772705078125,0.0509796142578125
2015-04-16 19:57:34.809,999,47402.38858291667,-0.7955474853515625,-0.75555419921875,0.0504302978515625
2015-04-16 19:57:34.818,1000,47402.398387125,-0.7711181640625,-0.7447662353515625,0.0413055419921875
2015-04-16 19:57:34.830,1001,47402.40802116667,-0.78289794921875,-0.793487548828125,0.0534515380859375
2015-04-16 19:57:34.838,1002,47402.41774525,-0.7386627197265625,-0.774871826171875,0.045074462890625
2015-04-16 19:57:34.847,1003,47402.42734916667,-0.81719970703125,-0.7748260498046875,0.0478057861328125
2015-04-16 19:57:34.868,1004,47402.43706670833,-0.8749237060546875,-0.775482177734375,0.0493316650390625
2015-04-16 19:57:34.894,1005,47402.44678220834,-0.889495849609375,-0.7451629638671875,0.0395050048828125
2015-04-16 19:57:34.895,1006,47402.45650104167,-0.8912506103515625,-0.7566070556640625,0.0435028076171875
2015-04-16 19:57:34.895,1007,47402.46621729167,-0.830718994140625,-0.760650634765625,0.0350799560546875
2015-04-16 19:57:34.899,1008,47402.47593558334,-0.811279296875,-0.80902099609375,0.04791259765625
2015-04-16 19:57:34.906,1009,47402.48577029167,-0.7856597900390625,-0.82012939453125,0.045745849609375
2015-04-16 19:57:34.915,1010,47402.49537725,-0.870574951171875,-0.8629608154296875,0.0438385009765625
2015-04-16 19:57:34.925,1011,47402.50520383334,-0.98272705078125,-0.93084716796875,0.045257568359375
2015-04-16 19:57:34.935,1012,47402.51481350001,-1.07550048828125,-0.95660400390625,0.03253173828125
2015-04-16 19:57:34.946,1013,47402.524637,-1.14239501953125,-1.000198364257812,0.03338623046875
2015-04-16 19:57:34.967,1014,47402.53436054167,-1.187118530273438,-1.093017578125,0.0362396240234375
2015-04-16 19:57:34.997,1015,47402.54396754167,-1.144134521484375,-1.151504516601562,0.0321807861328125
2015-04-16 19:57:34.998,1016,47402.55368404167,-1.135513305664062,-1.178955078125,0.023406982421875
2015-04-16 19:57:34.998,1017,47402.56340145833,-1.121963500976562,-1.22637939453125,0.019561767578125
2015-04-16 19:57:34.999,1018,47402.57312,-1.150146484375,-1.254302978515625,0.021942138671875
2015-04-16 19:57:35.003,1019,47402.58295370833,-1.236907958984375,-1.30096435546875,0.02105712890625
2015-04-16 19:57:35.012,1020,47402.59255725001,-1.3099365234375,-1.297012329101562,0.0148773193359375
2015-04-16 19:57:35.023,1021,47402.602384625,-1.372268676757812,-1.311050415039062,0.01751708984375
2015-04-16 19:57:35.032,1022,47402.61211795834,-1.394805908203125,-1.331298828125,0.020782470703125
2015-04-16 19:57:35.043,1023,47402.621714125,-1.37030029296875,-1.320541381835938,0.017547607421875
2015-04-16 19:57:35.051,1024,47402.63143325,-1.3065185546875,-1.353164672851562,0.026885986328125
2015-04-16 19:57:35.095,1025,47402.64114666667,-1.23370361328125,-1.342803955078125,0.0261383056640625
2015-04-16 19:57:35.095,1026,47402.65086875,-1.169464111328125,-1.311660766601562,0.0322418212890625
2015-04-16 19:57:35.096,1027,47402.66058583334,-1.143386840820312,-1.252365112304688,0.0316925048828125
2015-04-16 19:57:35.096,1028,47402.67031195833,-1.1275634765625,-1.208419799804688,0.0362396240234375
2015-04-16 19:57:35.101,1029,47402.68002816667,-1.1328125,-1.137115478515625,0.0378875732421875
2015-04-16 19:57:35.110,1030,47402.68979154167,-1.107620239257812,-1.08544921875,0.03839111328125
2015-04-16 19:57:35.120,1031,47402.69946645833,-1.08709716796875,-1.038604736328125,0.0399017333984375
2015-04-16 19:57:35.129,1032,47402.70918429167,-1.0445556640625,-1.018173217773438,0.048248291015625
2015-04-16 19:57:35.139,1033,47402.71890245833,-1.00030517578125,-0.984344482421875,0.0476531982421875
2015-04-16 19:57:35.152,1034,47402.72861858334,-0.9759979248046875,-0.941253662109375,0.0481719970703125
2015-04-16 19:57:35.217,1035,47402.738336875,-0.9479827880859375,-0.8876495361328125,0.047637939453125
2015-04-16 19:57:35.218,1036,47402.74805725001,-0.9361724853515625,-0.829437255859375,0.042327880859375
2015-04-16 19:57:35.219,1037,47402.75777508334,-0.9270172119140625,-0.792205810546875,0.04010009765625
2015-04-16 19:57:35.219,1038,47402.76749604167,-0.9121856689453125,-0.75018310546875,0.03875732421875
2015-04-16 19:57:35.220,1039,47402.77721633334,-0.9076690673828125,-0.7215728759765625,0.0395660400390625
2015-04-16 19:57:35.220,1040,47402.78692770834,-0.8917694091796875,-0.6995086669921875,0.036346435546875
2015-04-16 19:57:35.221,1041,47402.7966505,-0.8862152099609375,-0.6861114501953125,0.034271240234375
2015-04-16 19:57:35.225,1042,47402.80636841667,-0.87957763671875,-0.694580078125,0.0293426513671875
2015-04-16 19:57:35.235,1043,47402.81609320833,-0.85699462890625,-0.6885833740234375,0.0212249755859375
2015-04-16 19:57:35.246,1044,47402.82580979167,-0.85589599609375,-0.70379638671875,0.0242462158203125
2015-04-16 19:57:35.295,1045,47402.83563833334,-0.850067138671875,-0.7256317138671875,0.0242919921875
2015-04-16 19:57:35.295,1046,47402.845243125,-0.8577117919921875,-0.7294921875,0.01751708984375
2015-04-16 19:57:35.296,1047,47402.854964125,-0.883331298828125,-0.731658935546875,0.0118865966796875
2015-04-16 19:57:35.296,1048,47402.86468483334,-0.8881072998046875,-0.7364654541015625,0.0050811767578125
2015-04-16 19:57:35.298,1049,47402.87440345834,-0.9088134765625,-0.7405242919921875,0.0131378173828125
2015-04-16 19:57:35.305,1050,47402.88423716667,-0.902191162109375,-0.74517822265625,0.008209228515625
2015-04-16 19:57:35.314,1051,47402.89384445833,-0.894622802734375,-0.7422637939453125,0.0100860595703125
2015-04-16 19:57:35.323,1052,47402.90356891667,-0.8841705322265625,-0.7506866455078125,0.0080718994140625
2015-04-16 19:57:35.334,1053,47402.91333204167,-0.84930419921875,-0.723663330078125,0.010528564453125
2015-04-16 19:57:35.344,1054,47402.92312841667,-0.8521575927734375,-0.719879150390625,0.0115203857421875
2015-04-16 19:57:35.353,1055,47402.93271758334,-0.8409271240234375,-0.7083282470703125,0.0084075927734375
2015-04-16 19:57:35.392,1056,47402.94243595834,-0.8504791259765625,-0.689422607421875,0.0123291015625
2015-04-16 19:57:35.393,1057,47402.952154625,-0.8675079345703125,-0.6896209716796875,0.0134735107421875
2015-04-16 19:57:35.393,1058,47402.96187633333,-0.87615966796875,-0.671630859375,0.013458251953125
2015-04-16 19:57:35.394,1059,47402.97159675,-0.878173828125,-0.662139892578125,0.0105133056640625
2015-04-16 19:57:35.401,1060,47402.98131754167,-0.8827667236328125,-0.6774139404296875,0.0125885009765625
2015-04-16 19:57:35.412,1061,47402.991141125,-0.8703155517578125,-0.6905975341796875,0.015472412109375
2015-04-16 19:57:35.421,1062,47403.00082220833,-0.871063232421875,-0.706817626953125,0.021453857421875
2015-04-16 19:57:35.431,1063,47403.01047066667,-0.86248779296875,-0.714324951171875,0.0223846435546875
2015-04-16 19:57:35.440,1064,47403.02018908333,-0.8406524658203125,-0.72265625,0.021240234375
2015-04-16 19:57:35.450,1065,47403.03001591667,-0.854827880859375,-0.7237701416015625,0.0213775634765625
2015-04-16 19:57:35.492,1066,47403.03962,-0.8528594970703125,-0.729461669921875,0.0253143310546875
2015-04-16 19:57:35.493,1067,47403.0493425,-0.8443756103515625,-0.7284088134765625,0.0232696533203125
2015-04-16 19:57:35.494,1068,47403.05905879167,-0.84326171875,-0.739837646484375,0.030181884765625
2015-04-16 19:57:35.494,1069,47403.06877825,-0.8376007080078125,-0.733123779296875,0.0330352783203125
2015-04-16 19:57:35.499,1070,47403.07849883334,-0.8216094970703125,-0.7215118408203125,0.029876708984375
2015-04-16 19:57:35.508,1071,47403.08821641667,-0.8102264404296875,-0.72235107421875,0.0317535400390625
2015-04-16 19:57:35.518,1072,47403.09793379167,-0.7969970703125,-0.71270751953125,0.035491943359375
2015-04-16 19:57:35.528,1073,47403.10776154167,-0.7743682861328125,-0.6972198486328125,0.03619384765625
2015-04-16 19:57:35.537,1074,47403.11736891667,-0.74322509765625,-0.6854400634765625,0.03582763671875
2015-04-16 19:57:35.547,1075,47403.12708666667,-0.7234344482421875,-0.6804351806640625,0.03070068359375
2015-04-16 19:57:35.569,1076,47403.13680595833,-0.6971588134765625,-0.644927978515625,0.033203125
2015-04-16 19:57:35.596,1077,47403.14652341667,-0.6652374267578125,-0.61505126953125,0.0278472900390625
2015-04-16 19:57:35.597,1078,47403.15624308334,-0.6579437255859375,-0.5854644775390625,0.023712158203125
2015-04-16 19:57:35.598,1079,47403.16596116667,-0.6392059326171875,-0.5661773681640625,0.0185089111328125
2015-04-16 19:57:35.598,1080,47403.175678375,-0.6289825439453125,-0.54608154296875,0.0163421630859375
2015-04-16 19:57:35.605,1081,47403.185508625,-0.618621826171875,-0.53643798828125,0.016204833984375
2015-04-16 19:57:35.615,1082,47403.19512370833,-0.6177978515625,-0.52691650390625,0.0131988525390625
2015-04-16 19:57:35.625,1083,47403.20495120834,-0.6261749267578125,-0.536529541015625,0.01922607421875
2015-04-16 19:57:35.635,1084,47403.21455400001,-0.627197265625,-0.5384368896484375,0.0133514404296875
2015-04-16 19:57:35.645,1085,47403.22438650001,-0.6244354248046875,-0.527923583984375,0.0122833251953125
2015-04-16 19:57:35.667,1086,47403.23410441667,-0.6094207763671875,-0.515380859375,0.0091400146484375
2015-04-16 19:57:35.693,1087,47403.24565491667,-0.5688934326171875,-0.4939727783203125,0.0057220458984375
2015-04-16 19:57:35.694,1088,47403.25537804167,-0.5323333740234375,-0.455474853515625,0.000244140625
2015-04-16 19:57:35.695,1089,47403.26509408333,-0.514434814453125,-0.4447784423828125,-0.000946044921875
2015-04-16 19:57:35.696,1090,47403.27481858333,-0.5049896240234375,-0.44183349609375,-7.62939453125e-05
2015-04-16 19:57:35.705,1091,47403.28465041667,-0.4947357177734375,-0.419830322265625,-0.0002899169921875
2015-04-16 19:57:35.714,1092,47403.29426154167,-0.4694366455078125,-0.3909759521484375,-0.004608154296875
2015-04-16 19:57:35.725,1093,47403.30408691667,-0.429840087890625,-0.3676910400390625,-0.005096435546875
2015-04-16 19:57:35.734,1094,47403.31376529167,-0.3778839111328125,-0.350921630859375,-0.00469970703125
2015-04-16 19:57:35.743,1095,47403.32341408334,-0.31951904296875,-0.3131256103515625,-0.0093841552734375
2015-04-16 19:57:35.752,1096,47403.33313087501,-0.2743988037109375,-0.268829345703125,-0.010040283203125
2015-04-16 19:57:35.767,1097,47403.34284491667,-0.2377166748046875,-0.2455596923828125,-0.0164031982421875
2015-04-16 19:57:35.794,1098,47403.35256895833,-0.2312164306640625,-0.2264556884765625,-0.01556396484375
2015-04-16 19:57:35.795,1099,47403.36228266667,-0.2198944091796875,-0.2130126953125,-0.0108489990234375
2015-04-16 19:57:35.795,1100,47403.37200891667,-0.208526611328125,-0.2138519287109375,-0.010955810546875
2015-04-16 19:57:35.801,1101,47403.38172816667,-0.1964263916015625,-0.19464111328125,-0.0150909423828125
2015-04-16 19:57:35.812,1102,47403.39155445834,-0.1860504150390625,-0.1973876953125,-0.02008056640625
2015-04-16 19:57:35.821,1103,47403.401162625,-0.19366455078125,-0.1907958984375,-0.019073486328125
2015-04-16 19:57:35.830,1104,47403.41089745834,-0.2152557373046875,-0.207244873046875,-0.0138702392578125
2015-04-16 19:57:35.841,1105,47403.42070779167,-0.2293243408203125,-0.2245330810546875,-0.013641357421875
2015-04-16 19:57:35.850,1106,47403.43031425,-0.25946044921875,-0.2410736083984375,-0.01129150390625
2015-04-16 19:57:35.867,1107,47403.441976,-0.280242919921875,-0.242279052734375,-0.007171630859375
2015-04-16 19:57:35.893,1108,47403.45169712501,-0.3359222412109375,-0.268585205078125,-0.00946044921875
2015-04-16 19:57:35.894,1109,47403.46141929167,-0.384857177734375,-0.3119659423828125,-0.009735107421875
2015-04-16 19:57:35.895,1110,47403.47113933333,-0.4449615478515625,-0.3764190673828125,-0.00885009765625
2015-04-16 19:57:35.901,1111,47403.4808515,-0.5146484375,-0.4257354736328125,-0.0069427490234375
2015-04-16 19:57:35.910,1112,47403.49057341667,-0.578582763671875,-0.4940185546875,-0.0108795166015625
2015-04-16 19:57:35.920,1113,47403.50029091667,-0.639404296875,-0.5851287841796875,-0.00689697265625
2015-04-16 19:57:35.931,1114,47403.51000675,-0.699249267578125,-0.6914215087890625,-0.009735107421875
2015-04-16 19:57:35.940,1115,47403.51983954167,-0.77679443359375,-0.8151092529296875,0.0004730224609375
2015-04-16 19:57:35.949,1116,47403.52944558334,-0.86822509765625,-0.9712982177734375,0.016845703125
2015-04-16 19:57:35.969,1117,47403.541105125,-1.081878662109375,-1.022247314453125,0.0142669677734375
2015-04-16 19:57:35.997,1118,47403.55082429167,-1.062362670898438,-0.97540283203125,0.011871337890625
2015-04-16 19:57:35.998,1119,47403.56054254167,-1.034378051757812,-0.9189453125,0.011322021484375
2015-04-16 19:57:35.998,1120,47403.570263375,-0.9788665771484375,-0.87261962890625,0.0125274658203125
2015-04-16 19:57:35.999,1121,47403.57997808333,-0.9045257568359375,-0.810882568359375,0.011505126953125
2015-04-16 19:57:36.011,1122,47403.58981004167,-0.8055419921875,-0.752655029296875,0.0092926025390625
2015-04-16 19:57:36.020,1123,47403.5995495,-0.71142578125,-0.6773529052734375,0.00799560546875
2015-04-16 19:57:36.030,1124,47403.60915404167,-0.6390380859375,-0.6013641357421875,0.011810302734375
2015-04-16 19:57:36.039,1125,47403.61885562501,-0.5949859619140625,-0.546600341796875,0.0081787109375
2015-04-16 19:57:36.048,1126,47403.628574125,-0.5619659423828125,-0.5196075439453125,0.0146026611328125
2015-04-16 19:57:36.069,1127,47403.63829145834,-0.568634033203125,-0.5092315673828125,0.016571044921875
2015-04-16 19:57:36.097,1128,47403.648009875,-0.577239990234375,-0.4979248046875,0.017578125
2015-04-16 19:57:36.098,1129,47403.65772795834,-0.6056365966796875,-0.493499755859375,0.0207672119140625
2015-04-16 19:57:36.098,1130,47403.66745029167,-0.6139984130859375,-0.5078887939453125,0.024871826171875
2015-04-16 19:57:36.099,1131,47403.67716329167,-0.6225433349609375,-0.51177978515625,0.022003173828125
2015-04-16 19:57:36.107,1132,47403.68699425001,-0.6251983642578125,-0.5242156982421875,0.0289764404296875
2015-04-16 19:57:36.116,1133,47403.696601875,-0.634490966796875,-0.5471343994140625,0.0281982421875
2015-04-16 19:57:36.127,1134,47403.706433625,-0.6315460205078125,-0.5613861083984375,0.0282440185546875
2015-04-16 19:57:36.136,1135,47403.71615433333,-0.65875244140625,-0.596893310546875,0.0276947021484375
2015-04-16 19:57:36.145,1136,47403.72575791667,-0.6823272705078125,-0.6218719482421875,0.02117919921875
2015-04-16 19:57:36.171,1137,47403.73547770834,-0.712310791015625,-0.656494140625,0.0245819091796875
2015-04-16 19:57:36.202,1138,47403.74519575,-0.753936767578125,-0.68072509765625,0.015289306640625
2015-04-16 19:57:36.203,1139,47403.75491883334,-0.776519775390625,-0.701904296875,0.0136260986328125
2015-04-16 19:57:36.204,1140,47403.76463783334,-0.791656494140625,-0.7210693359375,0.0040740966796875
2015-04-16 19:57:36.204,1141,47403.77435670834,-0.7944488525390625,-0.73345947265625,0.000213623046875
2015-04-16 19:57:36.205,1142,47403.78407404167,-0.7857818603515625,-0.7533416748046875,0.000244140625
2015-04-16 19:57:36.213,1143,47403.79379733334,-0.790496826171875,-0.7591094970703125,-0.0016326904296875
2015-04-16 19:57:36.224,1144,47403.80362229167,-0.7944488525390625,-0.7572021484375,-0.012420654296875
2015-04-16 19:57:36.233,1145,47403.81335320834,-0.7906646728515625,-0.757171630859375,-0.012451171875
2015-04-16 19:57:36.245,1146,47403.82304158334,-0.7898406982421875,-0.750457763671875,-0.0183868408203125
2015-04-16 19:57:36.253,1147,47403.83267066667,-0.783294677734375,-0.734222412109375,-0.016571044921875
2015-04-16 19:57:36.294,1148,47403.8423855,-0.7767791748046875,-0.719879150390625,-0.0167083740234375
2015-04-16 19:57:36.295,1149,47403.8521065,-0.7598876953125,-0.6996917724609375,-0.0169677734375
2015-04-16 19:57:36.295,1150,47403.86182287501,-0.746795654296875,-0.6776580810546875,-0.0171966552734375
2015-04-16 19:57:36.296,1151,47403.87154579167,-0.734527587890625,-0.655670166015625,-0.007598876953125
2015-04-16 19:57:36.300,1152,47403.881271625,-0.7184906005859375,-0.6450347900390625,-0.0058441162109375
2015-04-16 19:57:36.311,1153,47403.89097637501,-0.70989990234375,-0.6421051025390625,-6.103515625e-05
2015-04-16 19:57:36.322,1154,47403.90080254167,-0.7071380615234375,-0.6268463134765625,0.0037689208984375
2015-04-16 19:57:36.330,1155,47403.91041600001,-0.707122802734375,-0.628753662109375,0.0037689208984375
2015-04-16 19:57:36.340,1156,47403.92023895834,-0.707061767578125,-0.6183319091796875,0.0145111083984375
2015-04-16 19:57:36.350,1157,47403.92986441667,-0.700439453125,-0.6097259521484375,0.018341064453125
2015-04-16 19:57:36.394,1158,47403.93956379167,-0.7080535888671875,-0.607879638671875,0.016448974609375
2015-04-16 19:57:36.395,1159,47403.94928441667,-0.7163848876953125,-0.620391845703125,0.0244293212890625
2015-04-16 19:57:36.395,1160,47403.95900370833,-0.7125396728515625,-0.6269989013671875,0.024444580078125
2015-04-16 19:57:36.396,1161,47403.968725375,-0.7210235595703125,-0.633758544921875,0.0245513916015625
2015-04-16 19:57:36.399,1162,47403.97844595834,-0.7303619384765625,-0.6472015380859375,0.0266876220703125
2015-04-16 19:57:36.408,1163,47403.988162,-0.735992431640625,-0.65960693359375,0.022857666015625
2015-04-16 19:57:36.418,1164,47403.99798941667,-0.7425079345703125,-0.6758575439453125,0.0229949951171875
2015-04-16 19:57:36.427,1165,47404.00760008334,-0.75189208984375,-0.6788330078125,0.02801513671875
2015-04-16 19:57:36.438,1166,47404.017443,-0.7631988525390625,-0.6932373046875,0.0242767333984375
2015-04-16 19:57:36.447,1167,47404.02703483334,-0.7660675048828125,-0.69610595703125,0.0194091796875
2015-04-16 19:57:36.495,1168,47404.036758,-0.7707672119140625,-0.7066192626953125,0.0165557861328125
2015-04-16 19:57:36.495,1169,47404.04646654167,-0.7622222900390625,-0.7112579345703125,0.0145263671875
